; The collision integrals Q_{i,j}^{11} are exponential fit function obtained from 
; Transport properties of high-temperature Jupiter atmosphere components, D. Bruno, C. Catalfamo, M. Capitelli, G. Colonna, O. De Pascale et al., Phys. Plasmas 17, 112315 (2010), doi: 10.1063/1.3495980, Published by the American Institute of Physics
; 
; 
; To obtain these collision integrals, the original data (transport cross section Q^l_{i,j} or elastic collision differential cross section) are obtained from:
; 
; Transport properties of Hydrogen, J. R. Stallcop, E. Levin, H. Partridge, Journal of Thermophysics and Heat Transfer, Vol.12, No 4, 1998
;
;
; 1 atomic unit of square distance = 2.80e-17 cm^2
; 1eV = 11604K

2.80e-17


;        E             T             Q11
;       (eV)         (K)         (a.u.)

0.0862174       1000       68.7486
0.0948391       1100       67.0846
0.103461       1200       65.5666
0.112083       1300       64.1713
0.120704       1400       62.8805
0.129326       1500       61.6795
0.137948       1600       60.5568
0.14657       1700       59.5027
0.155191       1800       58.5092
0.163813       1900       57.5697
0.172435       2000       56.6784
0.181056       2100       55.8306
0.189678       2200       55.022
0.1983       2300       54.249
0.206922       2400       53.5085
0.215543       2500       52.7978
0.224165       2600       52.1143
0.232787       2700       51.456
0.241409       2800       50.8209
0.25003       2900       50.2072
0.258652       3000       49.6136
0.267274       3100       49.0385
0.275896       3200       48.4807
0.284517       3300       47.9392
0.293139       3400       47.4129
0.301761       3500       46.9008
0.310383       3600       46.4021
0.319004       3700       45.916
0.327626       3800       45.4419
0.336248       3900       44.9791
0.34487       4000       44.527
0.353491       4100       44.085
0.362113       4200       43.6526
0.370735       4300       43.2294
0.379356       4400       42.8149
0.387978       4500       42.4088
0.3966       4600       42.0107
0.405222       4700       41.6201
0.413843       4800       41.2369
0.422465       4900       40.8607
0.431087       5000       40.4912
0.439709       5100       40.1281
0.44833       5200       39.7713
0.456952       5300       39.4206
0.465574       5400       39.0756
0.474196       5500       38.7362
0.482817       5600       38.4022
0.491439       5700       38.0735
0.500061       5800       37.7498
0.508683       5900       37.431
0.517304       6000       37.1171
0.525926       6100       36.8077
0.534548       6200       36.5029
0.543169       6300       36.2025
0.551791       6400       35.9063
0.560413       6500       35.6143
0.569035       6600       35.3264
0.577656       6700       35.0424
0.586278       6800       34.7623
0.5949       6900       34.486
0.603522       7000       34.2133
0.612143       7100       33.9443
0.620765       7200       33.6788
0.629387       7300       33.4168
0.638009       7400       33.1581
0.64663       7500       32.9028
0.655252       7600       32.6507
0.663874       7700       32.4018
0.672496       7800       32.1561
0.681117       7900       31.9134
0.689739       8000       31.6738
0.698361       8100       31.4371
0.706983       8200       31.2033
0.715604       8300       30.9724
0.724226       8400       30.7442
0.732848       8500       30.5189
0.741469       8600       30.2963
0.750091       8700       30.0763
0.758713       8800       29.859
0.767335       8900       29.6443
0.775956       9000       29.4321
0.784578       9100       29.2224
0.7932       9200       29.0152
0.801822       9300       28.8104
0.810443       9400       28.608
0.819065       9500       28.408
0.827687       9600       28.2103
0.836309       9700       28.0148
0.84493       9800       27.8217
0.853552       9900       27.6307
0.862174       10000       27.4419
0.870796       10100       27.2553
0.879417       10200       27.0709
0.888039       10300       26.8885
0.896661       10400       26.7081
0.905282       10500       26.5298
0.913904       10600       26.3536
0.922526       10700       26.1792
0.931148       10800       26.0069
0.939769       10900       25.8364
0.948391       11000       25.6679
0.957013       11100       25.5012
0.965635       11200       25.3364
0.974256       11300       25.1733
0.982878       11400       25.0121
0.9915       11500       24.8526
1.00012       11600       24.6949
1.00874       11700       24.5389
1.01737       11800       24.3846
1.02599       11900       24.2319
1.03461       12000       24.0809
1.04323       12100       23.9315
1.05185       12200       23.7837
1.06047       12300       23.6375
1.0691       12400       23.4929
1.07772       12500       23.3498
1.08634       12600       23.2082
1.09496       12700       23.0681
1.10358       12800       22.9295
1.1122       12900       22.7923
1.12083       13000       22.6565
1.12945       13100       22.5222
1.13807       13200       22.3893
1.14669       13300       22.2577
1.15531       13400       22.1275
1.16393       13500       21.9987
1.17256       13600       21.8711
1.18118       13700       21.7449
1.1898       13800       21.62
1.19842       13900       21.4963
1.20704       14000       21.3739
1.21567       14100       21.2527
1.22429       14200       21.1327
1.23291       14300       21.0139
1.24153       14400       20.8963
1.25015       14500       20.7799
1.25877       14600       20.6646
1.2674       14700       20.5505
1.27602       14800       20.4375
1.28464       14900       20.3256
1.29326       15000       20.2148
1.30188       15100       20.1051
1.3105       15200       19.9964
1.31913       15300       19.8888
1.32775       15400       19.7822
1.33637       15500       19.6767
1.34499       15600       19.5721
1.35361       15700       19.4686
1.36223       15800       19.366
1.37086       15900       19.2644
1.37948       16000       19.1638
1.3881       16100       19.0641
1.39672       16200       18.9653
1.40534       16300       18.8675
1.41397       16400       18.7706
1.42259       16500       18.6745
1.43121       16600       18.5794
1.43983       16700       18.4851
1.44845       16800       18.3917
1.45707       16900       18.2991
1.4657       17000       18.2074
1.47432       17100       18.1165
1.48294       17200       18.0264
1.49156       17300       17.9372
1.50018       17400       17.8487
1.5088       17500       17.761
1.51743       17600       17.6741
1.52605       17700       17.588
1.53467       17800       17.5026
1.54329       17900       17.418
1.55191       18000       17.3341
1.56053       18100       17.2509
1.56916       18200       17.1685
1.57778       18300       17.0867
1.5864       18400       17.0057
1.59502       18500       16.9254
1.60364       18600       16.8457
1.61227       18700       16.7668
1.62089       18800       16.6885
1.62951       18900       16.6108
1.63813       19000       16.5338
1.64675       19100       16.4575
1.65537       19200       16.3818
1.664       19300       16.3067
1.67262       19400       16.2322
1.68124       19500       16.1584
1.68986       19600       16.0852
1.69848       19700       16.0125
1.7071       19800       15.9405
1.71573       19900       15.869
1.72435       20000       15.7981
1.73297       20100       15.7278
1.74159       20200       15.6581
1.75021       20300       15.5889
1.75883       20400       15.5202
1.76746       20500       15.4521
1.77608       20600       15.3846
1.7847       20700       15.3175
1.79332       20800       15.251
1.80194       20900       15.1851
1.81056       21000       15.1196
1.81919       21100       15.0546
1.82781       21200       14.9902
1.83643       21300       14.9262
1.84505       21400       14.8627
1.85367       21500       14.7997
1.8623       21600       14.7372
1.87092       21700       14.6752
1.87954       21800       14.6136
1.88816       21900       14.5525
1.89678       22000       14.4918
1.9054       22100       14.4316
1.91403       22200       14.3719
1.92265       22300       14.3125
1.93127       22400       14.2537
1.93989       22500       14.1952
1.94851       22600       14.1372
1.95713       22700       14.0796
1.96576       22800       14.0224
1.97438       22900       13.9657
1.983       23000       13.9093
1.99162       23100       13.8533
2.00024       23200       13.7978
2.00886       23300       13.7426
2.01749       23400       13.6879
2.02611       23500       13.6335
2.03473       23600       13.5795
2.04335       23700       13.5259
2.05197       23800       13.4726
2.0606       23900       13.4198
2.06922       24000       13.3673
2.07784       24100       13.3151
2.08646       24200       13.2633
2.09508       24300       13.2119
2.1037       24400       13.1608
2.11233       24500       13.1101
2.12095       24600       13.0597
2.12957       24700       13.0097
2.13819       24800       12.96
2.14681       24900       12.9106
2.15543       25000       12.8616
2.16406       25100       12.8128
2.17268       25200       12.7644
2.1813       25300       12.7164
2.18992       25400       12.6686
2.19854       25500       12.6212
2.20716       25600       12.574
2.21579       25700       12.5272
2.22441       25800       12.4807
2.23303       25900       12.4345
2.24165       26000       12.3886
2.25027       26100       12.3429
2.2589       26200       12.2976
2.26752       26300       12.2525
2.27614       26400       12.2078
2.28476       26500       12.1633
2.29338       26600       12.1191
2.302       26700       12.0752
2.31063       26800       12.0316
2.31925       26900       11.9882
2.32787       27000       11.9451
2.33649       27100       11.9022
2.34511       27200       11.8597
2.35373       27300       11.8174
2.36236       27400       11.7753
2.37098       27500       11.7335
2.3796       27600       11.692
2.38822       27700       11.6507
2.39684       27800       11.6097
2.40546       27900       11.5689
2.41409       28000       11.5284
2.42271       28100       11.4881
2.43133       28200       11.448
2.43995       28300       11.4082
2.44857       28400       11.3686
2.4572       28500       11.3293
2.46582       28600       11.2901
2.47444       28700       11.2513
2.48306       28800       11.2126
2.49168       28900       11.1742
2.5003       29000       11.136
2.50893       29100       11.098
2.51755       29200       11.0602
2.52617       29300       11.0227
2.53479       29400       10.9853
2.54341       29500       10.9482
2.55203       29600       10.9113
2.56066       29700       10.8746
2.56928       29800       10.8381
2.5779       29900       10.8018
2.58652       30000       10.7657
2.59514       30100       10.7298
2.60376       30200       10.6942
2.61239       30300       10.6587
2.62101       30400       10.6234
2.62963       30500       10.5883
2.63825       30600       10.5534
2.64687       30700       10.5187
2.6555       30800       10.4842
2.66412       30900       10.4499
2.67274       31000       10.4157
2.68136       31100       10.3818
2.68998       31200       10.348
2.6986       31300       10.3144
2.70723       31400       10.281
2.71585       31500       10.2478
2.72447       31600       10.2147
2.73309       31700       10.1818
2.74171       31800       10.1491
2.75033       31900       10.1166
2.75896       32000       10.0843
2.76758       32100       10.0521
2.7762       32200       10.0201
2.78482       32300       9.98821
2.79344       32400       9.95653
2.80206       32500       9.92501
2.81069       32600       9.89365
2.81931       32700       9.86246
2.82793       32800       9.83143
2.83655       32900       9.80056
2.84517       33000       9.76984
2.8538       33100       9.73929
2.86242       33200       9.70888
2.87104       33300       9.67864
2.87966       33400       9.64854
2.88828       33500       9.6186
2.8969       33600       9.58881
2.90553       33700       9.55916
2.91415       33800       9.52967
2.92277       33900       9.50032
2.93139       34000       9.47112
2.94001       34100       9.44206
2.94863       34200       9.41315
2.95726       34300       9.38437
2.96588       34400       9.35574
2.9745       34500       9.32726
2.98312       34600       9.2989
2.99174       34700       9.27069
3.00036       34800       9.24262
3.00899       34900       9.21468
3.01761       35000       9.18687
3.02623       35100       9.1592
3.03485       35200       9.13166
3.04347       35300       9.10426
3.0521       35400       9.07698
3.06072       35500       9.04984
3.06934       35600       9.02282
3.07796       35700       8.99593
3.08658       35800       8.96917
3.0952       35900       8.94253
3.10383       36000       8.91602
3.11245       36100       8.88963
3.12107       36200       8.86337
3.12969       36300       8.83723
3.13831       36400       8.81121
3.14693       36500       8.78531
3.15556       36600       8.75953
3.16418       36700       8.73387
3.1728       36800       8.70832
3.18142       36900       8.6829
3.19004       37000       8.65759
3.19866       37100       8.63239
3.20729       37200       8.60731
3.21591       37300       8.58234
3.22453       37400       8.55749
3.23315       37500       8.53275
3.24177       37600       8.50812
3.2504       37700       8.48359
3.25902       37800       8.45918
3.26764       37900       8.43488
3.27626       38000       8.41069
3.28488       38100       8.3866
3.2935       38200       8.36262
3.30213       38300       8.33874
3.31075       38400       8.31497
3.31937       38500       8.29131
3.32799       38600       8.26775
3.33661       38700       8.24429
3.34523       38800       8.22093
3.35386       38900       8.19767
3.36248       39000       8.17452
3.3711       39100       8.15146
3.37972       39200       8.12851
3.38834       39300       8.10565
3.39696       39400       8.08289
3.40559       39500       8.06023
3.41421       39600       8.03767
3.42283       39700       8.0152
3.43145       39800       7.99282
3.44007       39900       7.97055
3.4487       40000       7.94836
3.45732       40100       7.92627
3.46594       40200       7.90427
3.47456       40300       7.88236
3.48318       40400       7.86055
3.4918       40500       7.83883
3.50043       40600       7.81719
3.50905       40700       7.79565
3.51767       40800       7.77419
3.52629       40900       7.75283
3.53491       41000       7.73155
3.54353       41100       7.71036
3.55216       41200       7.68926
3.56078       41300       7.66824
3.5694       41400       7.64731
3.57802       41500       7.62646
3.58664       41600       7.6057
3.59526       41700       7.58502
3.60389       41800       7.56443
3.61251       41900       7.54391
3.62113       42000       7.52349
3.62975       42100       7.50314
3.63837       42200       7.48287
3.647       42300       7.46269
3.65562       42400       7.44258
3.66424       42500       7.42256
3.67286       42600       7.40261
3.68148       42700       7.38275
3.6901       42800       7.36296
3.69873       42900       7.34325
3.70735       43000       7.32362
3.71597       43100       7.30406
3.72459       43200       7.28458
3.73321       43300       7.26518
3.74183       43400       7.24585
3.75046       43500       7.2266
3.75908       43600       7.20742
3.7677       43700       7.18832
3.77632       43800       7.16929
3.78494       43900       7.15033
3.79356       44000       7.13144
3.80219       44100       7.11263
3.81081       44200       7.09389
3.81943       44300       7.07522
3.82805       44400       7.05662
3.83667       44500       7.0381
3.8453       44600       7.01964
3.85392       44700       7.00125
3.86254       44800       6.98293
3.87116       44900       6.96468
3.87978       45000       6.9465
3.8884       45100       6.92839
3.89703       45200       6.91034
3.90565       45300       6.89237
3.91427       45400       6.87445
3.92289       45500       6.85661
3.93151       45600       6.83883
3.94013       45700       6.82112
3.94876       45800       6.80347
3.95738       45900       6.78589
3.966       46000       6.76837
3.97462       46100       6.75091
3.98324       46200       6.73352
3.99186       46300       6.7162
4.00049       46400       6.69893
4.00911       46500       6.68173
4.01773       46600       6.66459
4.02635       46700       6.64752
4.03497       46800       6.6305
4.0436       46900       6.61355
4.05222       47000       6.59665
4.06084       47100       6.57982
4.06946       47200       6.56305
4.07808       47300       6.54633
4.0867       47400       6.52968
4.09533       47500       6.51309
4.10395       47600       6.49655
4.11257       47700       6.48007
4.12119       47800       6.46366
4.12981       47900       6.4473
4.13843       48000       6.43099
4.14706       48100       6.41475
4.15568       48200       6.39856
4.1643       48300       6.38243
4.17292       48400       6.36635
4.18154       48500       6.35033
4.19016       48600       6.33436
4.19879       48700       6.31846
4.20741       48800       6.3026
4.21603       48900       6.2868
4.22465       49000       6.27106
4.23327       49100       6.25537
4.2419       49200       6.23973
4.25052       49300       6.22415
4.25914       49400       6.20862
4.26776       49500       6.19314
4.27638       49600       6.17771
4.285       49700       6.16234
4.29363       49800       6.14702
4.30225       49900       6.13175
4.31087       50000       6.11654
4.31949       50100       6.10137
4.32811       50200       6.08626
4.33673       50300       6.07119
4.34536       50400       6.05618
4.35398       50500       6.04122
4.3626       50600       6.0263
4.37122       50700       6.01144
4.37984       50800       5.99663
4.38846       50900       5.98186
4.39709       51000       5.96715
4.40571       51100       5.95248
4.41433       51200       5.93786
4.42295       51300       5.92329
4.43157       51400       5.90877
4.4402       51500       5.89429
4.44882       51600       5.87986
4.45744       51700       5.86548
4.46606       51800       5.85115
4.47468       51900       5.83686
4.4833       52000       5.82262
4.49193       52100       5.80843
4.50055       52200       5.79428
4.50917       52300       5.78018
4.51779       52400       5.76612
4.52641       52500       5.75211
4.53503       52600       5.73814
4.54366       52700       5.72422
4.55228       52800       5.71034
4.5609       52900       5.69651
4.56952       53000       5.68272
4.57814       53100       5.66897
4.58676       53200       5.65527
4.59539       53300       5.64161
4.60401       53400       5.62799
4.61263       53500       5.61442
4.62125       53600       5.60089
4.62987       53700       5.58741
4.6385       53800       5.57396
4.64712       53900       5.56056
4.65574       54000       5.5472
4.66436       54100       5.53388
4.67298       54200       5.5206
4.6816       54300       5.50737
4.69023       54400       5.49417
4.69885       54500       5.48102
4.70747       54600       5.4679
4.71609       54700       5.45483
4.72471       54800       5.4418
4.73333       54900       5.42881
4.74196       55000       5.41586
4.75058       55100       5.40294
4.7592       55200       5.39007
4.76782       55300       5.37724
4.77644       55400       5.36444
4.78506       55500       5.35169
4.79369       55600       5.33897
4.80231       55700       5.32629
4.81093       55800       5.31365
4.81955       55900       5.30105
4.82817       56000       5.28849
4.8368       56100       5.27596
4.84542       56200       5.26347
4.85404       56300       5.25102
4.86266       56400       5.23861
4.87128       56500       5.22623
4.8799       56600       5.2139
4.88853       56700       5.20159
4.89715       56800       5.18933
4.90577       56900       5.1771
4.91439       57000       5.16491
4.92301       57100       5.15275
4.93163       57200       5.14063
4.94026       57300       5.12854
4.94888       57400       5.1165
4.9575       57500       5.10448
4.96612       57600       5.0925
4.97474       57700       5.08056
4.98336       57800       5.06865
4.99199       57900       5.05678
5.00061       58000       5.04494
5.00923       58100       5.03313
5.01785       58200       5.02136
5.02647       58300       5.00963
5.03509       58400       4.99793
5.04372       58500       4.98626
5.05234       58600       4.97462
5.06096       58700       4.96302
5.06958       58800       4.95146
5.0782       58900       4.93992
5.08683       59000       4.92842
5.09545       59100       4.91695
5.10407       59200       4.90552
5.11269       59300       4.89411
5.12131       59400       4.88274
5.12993       59500       4.87141
5.13856       59600       4.8601
5.14718       59700       4.84883
5.1558       59800       4.83759
5.16442       59900       4.82638
5.17304       60000       4.8152
5.18166       60100       4.80405
5.19029       60200       4.79294
5.19891       60300       4.78185
5.20753       60400       4.7708
5.21615       60500       4.75978
5.22477       60600       4.74879
5.23339       60700       4.73782
5.24202       60800       4.72689
5.25064       60900       4.716
5.25926       61000       4.70513
5.26788       61100       4.69429
5.2765       61200       4.68348
5.28513       61300       4.6727
5.29375       61400       4.66195
5.30237       61500       4.65123
5.31099       61600       4.64054
5.31961       61700       4.62988
5.32823       61800       4.61925
5.33686       61900       4.60864
5.34548       62000       4.59807
5.3541       62100       4.58752
5.36272       62200       4.57701
5.37134       62300       4.56652
5.37996       62400       4.55606
5.38859       62500       4.54563
5.39721       62600       4.53523
5.40583       62700       4.52485
5.41445       62800       4.51451
5.42307       62900       4.50419
5.43169       63000       4.4939
5.44032       63100       4.48364
5.44894       63200       4.4734
5.45756       63300       4.46319
5.46618       63400       4.45301
5.4748       63500       4.44286
5.48343       63600       4.43273
5.49205       63700       4.42263
5.50067       63800       4.41256
5.50929       63900       4.40251
5.51791       64000       4.3925
5.52653       64100       4.3825
5.53516       64200       4.37254
5.54378       64300       4.3626
5.5524       64400       4.35268
5.56102       64500       4.3428
5.56964       64600       4.33293
5.57826       64700       4.3231
5.58689       64800       4.31329
5.59551       64900       4.3035
5.60413       65000       4.29375
5.61275       65100       4.28401
5.62137       65200       4.2743
5.62999       65300       4.26462
5.63862       65400       4.25496
5.64724       65500       4.24533
5.65586       65600       4.23572
5.66448       65700       4.22614
5.6731       65800       4.21658
5.68173       65900       4.20705
5.69035       66000       4.19754
5.69897       66100       4.18806
5.70759       66200       4.1786
5.71621       66300       4.16916
5.72483       66400       4.15975
5.73346       66500       4.15036
5.74208       66600       4.141
5.7507       66700       4.13166
5.75932       66800       4.12234
5.76794       66900       4.11305
5.77656       67000       4.10378
5.78519       67100       4.09454
5.79381       67200       4.08531
5.80243       67300       4.07612
5.81105       67400       4.06694
5.81967       67500       4.05779
5.82829       67600       4.04866
5.83692       67700       4.03955
5.84554       67800       4.03047
5.85416       67900       4.02141
5.86278       68000       4.01237
5.8714       68100       4.00336
5.88003       68200       3.99436
5.88865       68300       3.98539
5.89727       68400       3.97644
5.90589       68500       3.96752
5.91451       68600       3.95861
5.92313       68700       3.94973
5.93176       68800       3.94087
5.94038       68900       3.93203
5.949       69000       3.92322
5.95762       69100       3.91442
5.96624       69200       3.90565
5.97486       69300       3.8969
5.98349       69400       3.88817
5.99211       69500       3.87946
6.00073       69600       3.87077
6.00935       69700       3.86211
6.01797       69800       3.85346
6.02659       69900       3.84484
6.03522       70000       3.83624
6.04384       70100       3.82766
6.05246       70200       3.81909
6.06108       70300       3.81055
6.0697       70400       3.80203
6.07833       70500       3.79354
6.08695       70600       3.78506
6.09557       70700       3.7766
6.10419       70800       3.76816
6.11281       70900       3.75974
6.12143       71000       3.75135
6.13006       71100       3.74297
6.13868       71200       3.73461
6.1473       71300       3.72628
6.15592       71400       3.71796
6.16454       71500       3.70966
6.17316       71600       3.70138
6.18179       71700       3.69313
6.19041       71800       3.68489
6.19903       71900       3.67667
6.20765       72000       3.66847
6.21627       72100       3.66029
6.22489       72200       3.65213
6.23352       72300       3.64399
6.24214       72400       3.63587
6.25076       72500       3.62776
6.25938       72600       3.61968
6.268       72700       3.61162
6.27663       72800       3.60357
6.28525       72900       3.59554
6.29387       73000       3.58753
6.30249       73100       3.57954
6.31111       73200       3.57157
6.31973       73300       3.56362
6.32836       73400       3.55569
6.33698       73500       3.54777
6.3456       73600       3.53987
6.35422       73700       3.53199
6.36284       73800       3.52413
6.37146       73900       3.51629
6.38009       74000       3.50847
6.38871       74100       3.50066
6.39733       74200       3.49287
6.40595       74300       3.4851
6.41457       74400       3.47735
6.42319       74500       3.46961
6.43182       74600       3.4619
6.44044       74700       3.4542
6.44906       74800       3.44652
6.45768       74900       3.43885
6.4663       75000       3.4312
6.47493       75100       3.42357
6.48355       75200       3.41596
6.49217       75300       3.40837
6.50079       75400       3.40079
6.50941       75500       3.39323
6.51803       75600       3.38569
6.52666       75700       3.37816
6.53528       75800       3.37065
6.5439       75900       3.36316
6.55252       76000       3.35568
6.56114       76100       3.34822
6.56976       76200       3.34078
6.57839       76300       3.33336
6.58701       76400       3.32595
6.59563       76500       3.31855
6.60425       76600       3.31118
6.61287       76700       3.30382
6.62149       76800       3.29648
6.63012       76900       3.28915
6.63874       77000       3.28184
6.64736       77100       3.27455
6.65598       77200       3.26727
6.6646       77300       3.26001
6.67323       77400       3.25276
6.68185       77500       3.24553
6.69047       77600       3.23832
6.69909       77700       3.23112
6.70771       77800       3.22394
6.71633       77900       3.21677
6.72496       78000       3.20962
6.73358       78100       3.20249
6.7422       78200       3.19537
6.75082       78300       3.18826
6.75944       78400       3.18118
6.76806       78500       3.1741
6.77669       78600       3.16705
6.78531       78700       3.16
6.79393       78800       3.15298
6.80255       78900       3.14597
6.81117       79000       3.13897
6.81979       79100       3.13199
6.82842       79200       3.12503
6.83704       79300       3.11807
6.84566       79400       3.11114
6.85428       79500       3.10422
6.8629       79600       3.09731
6.87153       79700       3.09042
6.88015       79800       3.08355
6.88877       79900       3.07668
6.89739       80000       3.06984
6.90601       80100       3.06301
6.91463       80200       3.05619
6.92326       80300       3.04939
6.93188       80400       3.0426
6.9405       80500       3.03582
6.94912       80600       3.02907
6.95774       80700       3.02232
6.96636       80800       3.01559
6.97499       80900       3.00887
6.98361       81000       3.00217
6.99223       81100       2.99548
7.00085       81200       2.98881
7.00947       81300       2.98215
7.01809       81400       2.9755
7.02672       81500       2.96887
7.03534       81600       2.96226
7.04396       81700       2.95565
7.05258       81800       2.94906
7.0612       81900       2.94249
7.06983       82000       2.93592
7.07845       82100       2.92938
7.08707       82200       2.92284
7.09569       82300       2.91632
7.10431       82400       2.90981
7.11293       82500       2.90332
7.12156       82600       2.89684
7.13018       82700       2.89037
7.1388       82800       2.88392
7.14742       82900       2.87748
7.15604       83000       2.87105
7.16466       83100       2.86464
7.17329       83200       2.85824
7.18191       83300       2.85185
7.19053       83400       2.84548
7.19915       83500       2.83911
7.20777       83600       2.83277
7.21639       83700       2.82643
7.22502       83800       2.82011
7.23364       83900       2.8138
7.24226       84000       2.80751
7.25088       84100       2.80122
7.2595       84200       2.79495
7.26813       84300       2.7887
7.27675       84400       2.78245
7.28537       84500       2.77622
7.29399       84600       2.77
7.30261       84700       2.7638
7.31123       84800       2.7576
7.31986       84900       2.75142
7.32848       85000       2.74525
7.3371       85100       2.7391
7.34572       85200       2.73295
7.35434       85300       2.72682
7.36296       85400       2.7207
7.37159       85500       2.7146
7.38021       85600       2.7085
7.38883       85700       2.70242
7.39745       85800       2.69635
7.40607       85900       2.69029
7.41469       86000       2.68425
7.42332       86100       2.67821
7.43194       86200       2.67219
7.44056       86300       2.66618
7.44918       86400       2.66019
7.4578       86500       2.6542
7.46643       86600       2.64823
7.47505       86700       2.64226
7.48367       86800       2.63632
7.49229       86900       2.63038
7.50091       87000       2.62445
7.50953       87100       2.61854
7.51816       87200       2.61263
7.52678       87300       2.60674
7.5354       87400       2.60086
7.54402       87500       2.595
7.55264       87600       2.58914
7.56126       87700       2.5833
7.56989       87800       2.57746
7.57851       87900       2.57164
7.58713       88000       2.56583
7.59575       88100       2.56003
7.60437       88200       2.55424
7.61299       88300       2.54847
7.62162       88400       2.5427
7.63024       88500       2.53695
7.63886       88600       2.53121
7.64748       88700       2.52548
7.6561       88800       2.51976
7.66473       88900       2.51405
7.67335       89000       2.50835
7.68197       89100       2.50266
7.69059       89200       2.49699
7.69921       89300       2.49132
7.70783       89400       2.48567
7.71646       89500       2.48002
7.72508       89600       2.47439
7.7337       89700       2.46877
7.74232       89800       2.46316
7.75094       89900       2.45756
7.75956       90000       2.45197
7.76819       90100       2.44639
7.77681       90200       2.44083
7.78543       90300       2.43527
7.79405       90400       2.42972
7.80267       90500       2.42419
7.81129       90600       2.41866
7.81992       90700       2.41315
7.82854       90800       2.40765
7.83716       90900       2.40215
7.84578       91000       2.39667
7.8544       91100       2.3912
7.86303       91200       2.38573
7.87165       91300       2.38028
7.88027       91400       2.37484
7.88889       91500       2.36941
7.89751       91600       2.36399
7.90613       91700       2.35858
7.91476       91800       2.35318
7.92338       91900       2.34779
7.932       92000       2.34241
7.94062       92100       2.33704
7.94924       92200       2.33168
7.95786       92300       2.32633
7.96649       92400       2.32099
7.97511       92500       2.31566
7.98373       92600       2.31034
7.99235       92700       2.30503
8.00097       92800       2.29973
8.00959       92900       2.29444
8.01822       93000       2.28916
8.02684       93100       2.28389
8.03546       93200       2.27863
8.04408       93300       2.27338
8.0527       93400       2.26814
8.06133       93500       2.26291
8.06995       93600       2.25769
8.07857       93700       2.25247
8.08719       93800       2.24727
8.09581       93900       2.24208
8.10443       94000       2.2369
8.11306       94100       2.23172
8.12168       94200       2.22656
8.1303       94300       2.2214
8.13892       94400       2.21626
8.14754       94500       2.21112
8.15616       94600       2.206
8.16479       94700       2.20088
8.17341       94800       2.19577
8.18203       94900       2.19068
8.19065       95000       2.18559
8.19927       95100       2.18051
8.20789       95200       2.17544
8.21652       95300       2.17038
8.22514       95400       2.16533
8.23376       95500       2.16028
8.24238       95600       2.15525
8.251       95700       2.15023
8.25963       95800       2.14521
8.26825       95900       2.14021
8.27687       96000       2.13521
8.28549       96100       2.13022
8.29411       96200       2.12524
8.30273       96300       2.12027
8.31136       96400       2.11531
8.31998       96500       2.11036
8.3286       96600       2.10542
8.33722       96700       2.10048
8.34584       96800       2.09556
8.35446       96900       2.09064
8.36309       97000       2.08573
8.37171       97100       2.08084
8.38033       97200       2.07595
8.38895       97300       2.07107
8.39757       97400       2.06619
8.40619       97500       2.06133
8.41482       97600       2.05647
8.42344       97700       2.05163
8.43206       97800       2.04679
8.44068       97900       2.04196
8.4493       98000       2.03714
8.45792       98100       2.03233
8.46655       98200       2.02752
8.47517       98300       2.02273
8.48379       98400       2.01794
8.49241       98500       2.01317
8.50103       98600       2.0084
8.50966       98700       2.00364
8.51828       98800       1.99888
8.5269       98900       1.99414
8.53552       99000       1.9894
8.54414       99100       1.98467
8.55276       99200       1.97996
8.56139       99300       1.97524
8.57001       99400       1.97054
8.57863       99500       1.96585
8.58725       99600       1.96116
8.59587       99700       1.95648
8.60449       99800       1.95181
8.61312       99900       1.94715
8.62174       100000       1.9425
8.63036       100100       1.93785
8.63898       100200       1.93321
8.6476       100300       1.92859
8.65622       100400       1.92396
8.66485       100500       1.91935
8.67347       100600       1.91475
8.68209       100700       1.91015
8.69071       100800       1.90556
8.69933       100900       1.90098
8.70796       101000       1.8964
8.71658       101100       1.89184
8.7252       101200       1.88728
8.73382       101300       1.88273
8.74244       101400       1.87819
8.75106       101500       1.87365
8.75969       101600       1.86913
8.76831       101700       1.86461
8.77693       101800       1.8601
8.78555       101900       1.8556
8.79417       102000       1.8511
8.80279       102100       1.84661
8.81142       102200       1.84213
8.82004       102300       1.83766
8.82866       102400       1.8332
8.83728       102500       1.82874
8.8459       102600       1.82429
8.85452       102700       1.81985
8.86315       102800       1.81541
8.87177       102900       1.81099
8.88039       103000       1.80657
8.88901       103100       1.80216
8.89763       103200       1.79775
8.90626       103300       1.79335
8.91488       103400       1.78897
8.9235       103500       1.78458
8.93212       103600       1.78021
8.94074       103700       1.77584
8.94936       103800       1.77148
8.95799       103900       1.76713
8.96661       104000       1.76278
8.97523       104100       1.75845
8.98385       104200       1.75412
8.99247       104300       1.74979
9.00109       104400       1.74548
9.00972       104500       1.74117
9.01834       104600       1.73687
9.02696       104700       1.73257
9.03558       104800       1.72829
9.0442       104900       1.72401
9.05282       105000       1.71973
9.06145       105100       1.71547
9.07007       105200       1.71121
9.07869       105300       1.70696
9.08731       105400       1.70271
9.09593       105500       1.69848
9.10456       105600       1.69424
9.11318       105700       1.69002
9.1218       105800       1.68581
9.13042       105900       1.6816
9.13904       106000       1.67739
9.14766       106100       1.6732
9.15629       106200       1.66901
9.16491       106300       1.66483
9.17353       106400       1.66065
9.18215       106500       1.65649
9.19077       106600       1.65232
9.19939       106700       1.64817
9.20802       106800       1.64402
9.21664       106900       1.63988
9.22526       107000       1.63575
9.23388       107100       1.63162
9.2425       107200       1.6275
9.25112       107300       1.62339
9.25975       107400       1.61928
9.26837       107500       1.61518
9.27699       107600       1.61109
9.28561       107700       1.607
9.29423       107800       1.60292
9.30286       107900       1.59885
9.31148       108000       1.59478
9.3201       108100       1.59072
9.32872       108200       1.58667
9.33734       108300       1.58262
9.34596       108400       1.57858
9.35459       108500       1.57455
9.36321       108600       1.57052
9.37183       108700       1.5665
9.38045       108800       1.56249
9.38907       108900       1.55848
9.39769       109000       1.55448
9.40632       109100       1.55048
9.41494       109200       1.5465
9.42356       109300       1.54251
9.43218       109400       1.53854
9.4408       109500       1.53457
9.44942       109600       1.53061
9.45805       109700       1.52665
9.46667       109800       1.5227
9.47529       109900       1.51876
9.48391       110000       1.51482
9.49253       110100       1.51089
9.50116       110200       1.50696
9.50978       110300       1.50305
9.5184       110400       1.49913
9.52702       110500       1.49523
9.53564       110600       1.49133
9.54426       110700       1.48743
9.55289       110800       1.48355
9.56151       110900       1.47967
9.57013       111000       1.47579
9.57875       111100       1.47192
9.58737       111200       1.46806
9.59599       111300       1.4642
9.60462       111400       1.46035
9.61324       111500       1.45651
9.62186       111600       1.45267
9.63048       111700       1.44884
9.6391       111800       1.44501
9.64772       111900       1.44119
9.65635       112000       1.43738
9.66497       112100       1.43357
9.67359       112200       1.42977
9.68221       112300       1.42597
9.69083       112400       1.42218
9.69946       112500       1.41839
9.70808       112600       1.41462
9.7167       112700       1.41084
9.72532       112800       1.40708
9.73394       112900       1.40332
9.74256       113000       1.39956
9.75119       113100       1.39581
9.75981       113200       1.39207
9.76843       113300       1.38833
9.77705       113400       1.3846
9.78567       113500       1.38087
9.79429       113600       1.37716
9.80292       113700       1.37344
9.81154       113800       1.36973
9.82016       113900       1.36603
9.82878       114000       1.36233
9.8374       114100       1.35864
9.84602       114200       1.35496
9.85465       114300       1.35128
9.86327       114400       1.3476
9.87189       114500       1.34394
9.88051       114600       1.34027
9.88913       114700       1.33662
9.89776       114800       1.33296
9.90638       114900       1.32932
9.915       115000       1.32568
9.92362       115100       1.32204
9.93224       115200       1.31841
9.94086       115300       1.31479
9.94949       115400       1.31117
9.95811       115500       1.30756
9.96673       115600       1.30395
9.97535       115700       1.30035
9.98397       115800       1.29676
9.99259       115900       1.29317
10.0012       116000       1.28958
10.0098       116100       1.286
10.0185       116200       1.28243
10.0271       116300       1.27886
10.0357       116400       1.2753
10.0443       116500       1.27174
10.0529       116600       1.26819
10.0616       116700       1.26464
10.0702       116800       1.2611
10.0788       116900       1.25756
10.0874       117000       1.25403
10.0961       117100       1.25051
10.1047       117200       1.24699
10.1133       117300       1.24347
10.1219       117400       1.23996
10.1305       117500       1.23646
10.1392       117600       1.23296
10.1478       117700       1.22947
10.1564       117800       1.22598
10.165       117900       1.2225
10.1737       118000       1.21902
10.1823       118100       1.21555
10.1909       118200       1.21208
10.1995       118300       1.20862
10.2081       118400       1.20516
10.2168       118500       1.20171
10.2254       118600       1.19826
10.234       118700       1.19482
10.2426       118800       1.19139
10.2512       118900       1.18795
10.2599       119000       1.18453
10.2685       119100       1.18111
10.2771       119200       1.17769
10.2857       119300       1.17428
10.2944       119400       1.17087
10.303       119500       1.16747
10.3116       119600       1.16408
10.3202       119700       1.16069
10.3288       119800       1.1573
10.3375       119900       1.15392
10.3461       120000       1.15055
10.3547       120100       1.14718
10.3633       120200       1.14381
10.372       120300       1.14045
10.3806       120400       1.1371
10.3892       120500       1.13374
10.3978       120600       1.1304
10.4064       120700       1.12706
10.4151       120800       1.12372
10.4237       120900       1.12039
10.4323       121000       1.11707
10.4409       121100       1.11374
10.4495       121200       1.11043
10.4582       121300       1.10712
10.4668       121400       1.10381
10.4754       121500       1.10051
10.484       121600       1.09721
10.4927       121700       1.09392
10.5013       121800       1.09063
10.5099       121900       1.08735
10.5185       122000       1.08407
10.5271       122100       1.0808
10.5358       122200       1.07753
10.5444       122300       1.07427
10.553       122400       1.07101
10.5616       122500       1.06776
10.5703       122600       1.06451
10.5789       122700       1.06126
10.5875       122800       1.05802
10.5961       122900       1.05479
10.6047       123000       1.05156
10.6134       123100       1.04833
10.622       123200       1.04511
10.6306       123300       1.0419
10.6392       123400       1.03868
10.6478       123500       1.03548
10.6565       123600       1.03227
10.6651       123700       1.02908
10.6737       123800       1.02588
10.6823       123900       1.02269
10.691       124000       1.01951
10.6996       124100       1.01633
10.7082       124200       1.01316
10.7168       124300       1.00999
10.7254       124400       1.00682
10.7341       124500       1.00366
10.7427       124600       1.0005
10.7513       124700       0.997351
10.7599       124800       0.994203
10.7686       124900       0.99106
10.7772       125000       0.987922
10.7858       125100       0.984788
10.7944       125200       0.981658
10.803       125300       0.978533
10.8117       125400       0.975412
10.8203       125500       0.972296
10.8289       125600       0.969184
10.8375       125700       0.966076
10.8461       125800       0.962973
10.8548       125900       0.959875
10.8634       126000       0.95678
10.872       126100       0.95369
10.8806       126200       0.950605
10.8893       126300       0.947524
10.8979       126400       0.944447
10.9065       126500       0.941375
10.9151       126600       0.938307
10.9237       126700       0.935243
10.9324       126800       0.932183
10.941       126900       0.929128
10.9496       127000       0.926078
10.9582       127100       0.923031
10.9669       127200       0.919989
10.9755       127300       0.916951
10.9841       127400       0.913917
10.9927       127500       0.910888
11.0013       127600       0.907863
11.01       127700       0.904842
11.0186       127800       0.901825
11.0272       127900       0.898812
11.0358       128000       0.895804
11.0444       128100       0.8928
11.0531       128200       0.8898
11.0617       128300       0.886805
11.0703       128400       0.883813
11.0789       128500       0.880826
11.0876       128600       0.877843
11.0962       128700       0.874864
11.1048       128800       0.871889
11.1134       128900       0.868918
11.122       129000       0.865951
11.1307       129100       0.862989
11.1393       129200       0.86003
11.1479       129300       0.857076
11.1565       129400       0.854126
11.1652       129500       0.85118
11.1738       129600       0.848238
11.1824       129700       0.8453
11.191       129800       0.842366
11.1996       129900       0.839436
11.2083       130000       0.83651
11.2169       130100       0.833589
11.2255       130200       0.830671
11.2341       130300       0.827757
11.2427       130400       0.824847
11.2514       130500       0.821942
11.26       130600       0.81904
11.2686       130700       0.816142
11.2772       130800       0.813248
11.2859       130900       0.810359
11.2945       131000       0.807473
11.3031       131100       0.804591
11.3117       131200       0.801713
11.3203       131300       0.798839
11.329       131400       0.795969
11.3376       131500       0.793103
11.3462       131600       0.79024
11.3548       131700       0.787382
11.3635       131800       0.784528
11.3721       131900       0.781677
11.3807       132000       0.77883
11.3893       132100       0.775988
11.3979       132200       0.773149
11.4066       132300       0.770314
11.4152       132400       0.767482
11.4238       132500       0.764655
11.4324       132600       0.761831
11.441       132700       0.759012
11.4497       132800       0.756196
11.4583       132900       0.753384
11.4669       133000       0.750575
11.4755       133100       0.747771
11.4842       133200       0.74497
11.4928       133300       0.742173
11.5014       133400       0.73938
11.51       133500       0.736591
11.5186       133600       0.733805
11.5273       133700       0.731023
11.5359       133800       0.728245
11.5445       133900       0.72547
11.5531       134000       0.7227
11.5618       134100       0.719933
11.5704       134200       0.717169
11.579       134300       0.71441
11.5876       134400       0.711654
11.5962       134500       0.708902
11.6049       134600       0.706153
11.6135       134700       0.703409
11.6221       134800       0.700667
11.6307       134900       0.69793
11.6393       135000       0.695196
11.648       135100       0.692466
11.6566       135200       0.689739
11.6652       135300       0.687017
11.6738       135400       0.684297
11.6825       135500       0.681582
11.6911       135600       0.678869
11.6997       135700       0.676161
11.7083       135800       0.673456
11.7169       135900       0.670755
11.7256       136000       0.668057
11.7342       136100       0.665363
11.7428       136200       0.662673
11.7514       136300       0.659986
11.7601       136400       0.657302
11.7687       136500       0.654622
11.7773       136600       0.651946
11.7859       136700       0.649273
11.7945       136800       0.646604
11.8032       136900       0.643938
11.8118       137000       0.641276
11.8204       137100       0.638617
11.829       137200       0.635962
11.8376       137300       0.63331
11.8463       137400       0.630662
11.8549       137500       0.628017
11.8635       137600       0.625376
11.8721       137700       0.622738
11.8808       137800       0.620103
11.8894       137900       0.617473
11.898       138000       0.614845
11.9066       138100       0.612221
11.9152       138200       0.6096
11.9239       138300       0.606983
11.9325       138400       0.604369
11.9411       138500       0.601759
11.9497       138600       0.599152
11.9584       138700       0.596548
11.967       138800       0.593948
11.9756       138900       0.591351
11.9842       139000       0.588758
11.9928       139100       0.586168
12.0015       139200       0.583581
12.0101       139300       0.580998
12.0187       139400       0.578418
12.0273       139500       0.575841
12.0359       139600       0.573268
12.0446       139700       0.570698
12.0532       139800       0.568132
12.0618       139900       0.565568
12.0704       140000       0.563008
12.0791       140100       0.560452
12.0877       140200       0.557898
12.0963       140300       0.555348
12.1049       140400       0.552801
12.1135       140500       0.550258
12.1222       140600       0.547718
12.1308       140700       0.545181
12.1394       140800       0.542647
12.148       140900       0.540116
12.1567       141000       0.537589
12.1653       141100       0.535065
12.1739       141200       0.532545
12.1825       141300       0.530027
12.1911       141400       0.527513
12.1998       141500       0.525002
12.2084       141600       0.522494
12.217       141700       0.519989
12.2256       141800       0.517488
12.2342       141900       0.51499
12.2429       142000       0.512495
12.2515       142100       0.510003
12.2601       142200       0.507514
12.2687       142300       0.505029
12.2774       142400       0.502546
12.286       142500       0.500067
12.2946       142600       0.497591
12.3032       142700       0.495118
12.3118       142800       0.492649
12.3205       142900       0.490182
12.3291       143000       0.487719
12.3377       143100       0.485258
12.3463       143200       0.482801
12.355       143300       0.480347
12.3636       143400       0.477896
12.3722       143500       0.475448
12.3808       143600       0.473003
12.3894       143700       0.470562
12.3981       143800       0.468123
12.4067       143900       0.465688
12.4153       144000       0.463255
12.4239       144100       0.460826
12.4325       144200       0.458399
12.4412       144300       0.455976
12.4498       144400       0.453556
12.4584       144500       0.451139
12.467       144600       0.448725
12.4757       144700       0.446314
12.4843       144800       0.443905
12.4929       144900       0.4415
12.5015       145000       0.439098
12.5101       145100       0.436699
12.5188       145200       0.434303
12.5274       145300       0.43191
12.536       145400       0.42952
12.5446       145500       0.427133
12.5533       145600       0.424749
12.5619       145700       0.422368
12.5705       145800       0.41999
12.5791       145900       0.417615
12.5877       146000       0.415243
12.5964       146100       0.412873
12.605       146200       0.410507
12.6136       146300       0.408144
12.6222       146400       0.405783
12.6308       146500       0.403426
12.6395       146600       0.401071
12.6481       146700       0.39872
12.6567       146800       0.396371
12.6653       146900       0.394025
12.674       147000       0.391682
12.6826       147100       0.389342
12.6912       147200       0.387005
12.6998       147300       0.384671
12.7084       147400       0.38234
12.7171       147500       0.380011
12.7257       147600       0.377686
12.7343       147700       0.375363
12.7429       147800       0.373043
12.7516       147900       0.370726
12.7602       148000       0.368412
12.7688       148100       0.366101
12.7774       148200       0.363792
12.786       148300       0.361487
12.7947       148400       0.359184
12.8033       148500       0.356884
12.8119       148600       0.354587
12.8205       148700       0.352293
12.8291       148800       0.350001
12.8378       148900       0.347713
12.8464       149000       0.345427
12.855       149100       0.343144
12.8636       149200       0.340864
12.8723       149300       0.338586
12.8809       149400       0.336312
12.8895       149500       0.33404
12.8981       149600       0.33177
12.9067       149700       0.329504
12.9154       149800       0.327241
12.924       149900       0.32498
12.9326       150000       0.322722
12.9412       150100       0.320466
12.9499       150200       0.318214
12.9585       150300       0.315964
12.9671       150400       0.313717
12.9757       150500       0.311472
12.9843       150600       0.309231
12.993       150700       0.306992
13.0016       150800       0.304755
13.0102       150900       0.302522
13.0188       151000       0.300291
13.0274       151100       0.298063
13.0361       151200       0.295837
13.0447       151300       0.293615
13.0533       151400       0.291395
13.0619       151500       0.289177
13.0706       151600       0.286963
13.0792       151700       0.284751
13.0878       151800       0.282541
13.0964       151900       0.280334
13.105       152000       0.27813
13.1137       152100       0.275929
13.1223       152200       0.27373
13.1309       152300       0.271534
13.1395       152400       0.269341
13.1482       152500       0.26715
13.1568       152600       0.264962
13.1654       152700       0.262776
13.174       152800       0.260593
13.1826       152900       0.258413
13.1913       153000       0.256235
13.1999       153100       0.25406
13.2085       153200       0.251887
13.2171       153300       0.249717
13.2257       153400       0.24755
13.2344       153500       0.245385
13.243       153600       0.243223
13.2516       153700       0.241064
13.2602       153800       0.238906
13.2689       153900       0.236752
13.2775       154000       0.2346
13.2861       154100       0.232451
13.2947       154200       0.230304
13.3033       154300       0.22816
13.312       154400       0.226018
13.3206       154500       0.223879
13.3292       154600       0.221742
13.3378       154700       0.219608
13.3465       154800       0.217477
13.3551       154900       0.215348
13.3637       155000       0.213221
13.3723       155100       0.211097
13.3809       155200       0.208976
13.3896       155300       0.206857
13.3982       155400       0.20474
13.4068       155500       0.202626
13.4154       155600       0.200515
13.424       155700       0.198406
13.4327       155800       0.1963
13.4413       155900       0.194196
13.4499       156000       0.192094
13.4585       156100       0.189995
13.4672       156200       0.187898
13.4758       156300       0.185804
13.4844       156400       0.183713
13.493       156500       0.181623
13.5016       156600       0.179537
13.5103       156700       0.177452
13.5189       156800       0.17537
13.5275       156900       0.173291
13.5361       157000       0.171214
13.5448       157100       0.169139
13.5534       157200       0.167067
13.562       157300       0.164998
13.5706       157400       0.16293
13.5792       157500       0.160865
13.5879       157600       0.158803
13.5965       157700       0.156743
13.6051       157800       0.154685
13.6137       157900       0.15263
13.6223       158000       0.150577
13.631       158100       0.148527
13.6396       158200       0.146478
13.6482       158300       0.144433
13.6568       158400       0.142389
13.6655       158500       0.140348
13.6741       158600       0.13831
13.6827       158700       0.136273
13.6913       158800       0.13424
13.6999       158900       0.132208
13.7086       159000       0.130179
13.7172       159100       0.128152
13.7258       159200       0.126128
13.7344       159300       0.124105
13.7431       159400       0.122086
13.7517       159500       0.120068
13.7603       159600       0.118053
13.7689       159700       0.11604
13.7775       159800       0.11403
13.7862       159900       0.112022
13.7948       160000       0.110016
13.8034       160100       0.108012
13.812       160200       0.106011
13.8206       160300       0.104012
13.8293       160400       0.102015
13.8379       160500       0.100021
13.8465       160600       0.0980289
13.8551       160700       0.0960391
13.8638       160800       0.0940516
13.8724       160900       0.0920664
13.881       161000       0.0900834
13.8896       161100       0.0881028
13.8982       161200       0.0861244
13.9069       161300       0.0841482
13.9155       161400       0.0821743
13.9241       161500       0.0802027
13.9327       161600       0.0782333
13.9414       161700       0.0762662
13.95       161800       0.0743013
13.9586       161900       0.0723387
13.9672       162000       0.0703783
13.9758       162100       0.0684201
13.9845       162200       0.0664641
13.9931       162300       0.0645104
14.0017       162400       0.0625589
14.0103       162500       0.0606096
14.0189       162600       0.0586626
14.0276       162700       0.0567177
14.0362       162800       0.0547751
14.0448       162900       0.0528346
14.0534       163000       0.0508964
14.0621       163100       0.0489603
14.0707       163200       0.0470265
14.0793       163300       0.0450948
14.0879       163400       0.0431653
14.0965       163500       0.041238
14.1052       163600       0.0393129
14.1138       163700       0.03739
14.1224       163800       0.0354692
14.131       163900       0.0335506
14.1397       164000       0.0316341
14.1483       164100       0.0297198
14.1569       164200       0.0278077
14.1655       164300       0.0258977
14.1741       164400       0.0239899
14.1828       164500       0.0220842
14.1914       164600       0.0201807
14.2       164700       0.0182793
14.2086       164800       0.01638
14.2172       164900       0.0144829
14.2259       165000       0.0125879
14.2345       165100       0.010695
14.2431       165200       0.00880427
14.2517       165300       0.00691563
14.2604       165400       0.00502911
14.269       165500       0.0031447
14.2776       165600       0.0012624
14.2862       165700       -0.000617805
14.2948       165800       -0.0024959
14.3035       165900       -0.00437191
14.3121       166000       -0.00624581
14.3207       166100       -0.00811763
14.3293       166200       -0.00998736
14.338       166300       -0.011855
14.3466       166400       -0.0137206
14.3552       166500       -0.0155841
14.3638       166600       -0.0174455
14.3724       166700       -0.0193048
14.3811       166800       -0.0211621
14.3897       166900       -0.0230173
14.3983       167000       -0.0248705
14.4069       167100       -0.0267216
14.4155       167200       -0.0285706
14.4242       167300       -0.0304176
14.4328       167400       -0.0322626
14.4414       167500       -0.0341055
14.45       167600       -0.0359463
14.4587       167700       -0.0377852
14.4673       167800       -0.039622
14.4759       167900       -0.0414567
14.4845       168000       -0.0432895
14.4931       168100       -0.0451202
14.5018       168200       -0.0469489
14.5104       168300       -0.0487755
14.519       168400       -0.0506002
14.5276       168500       -0.0524228
14.5363       168600       -0.0542435
14.5449       168700       -0.0560621
14.5535       168800       -0.0578788
14.5621       168900       -0.0596934
14.5707       169000       -0.061506
14.5794       169100       -0.0633167
14.588       169200       -0.0651254
14.5966       169300       -0.066932
14.6052       169400       -0.0687367
14.6138       169500       -0.0705394
14.6225       169600       -0.0723402
14.6311       169700       -0.074139
14.6397       169800       -0.0759358
14.6483       169900       -0.0777306
14.657       170000       -0.0795235
14.6656       170100       -0.0813144
14.6742       170200       -0.0831033
14.6828       170300       -0.0848903
14.6914       170400       -0.0866754
14.7001       170500       -0.0884585
14.7087       170600       -0.0902396
14.7173       170700       -0.0920188
14.7259       170800       -0.0937961
14.7346       170900       -0.0955715
14.7432       171000       -0.0973449
14.7518       171100       -0.0991164
14.7604       171200       -0.100886
14.769       171300       -0.102654
14.7777       171400       -0.104419
14.7863       171500       -0.106183
14.7949       171600       -0.107945
14.8035       171700       -0.109705
14.8121       171800       -0.111463
14.8208       171900       -0.113219
14.8294       172000       -0.114973
14.838       172100       -0.116726
14.8466       172200       -0.118476
14.8553       172300       -0.120225
14.8639       172400       -0.121971
14.8725       172500       -0.123716
14.8811       172600       -0.125459
14.8897       172700       -0.1272
14.8984       172800       -0.128939
14.907       172900       -0.130677
14.9156       173000       -0.132412
14.9242       173100       -0.134146
14.9329       173200       -0.135877
14.9415       173300       -0.137607
14.9501       173400       -0.139335
14.9587       173500       -0.141061
14.9673       173600       -0.142785
14.976       173700       -0.144508
14.9846       173800       -0.146228
14.9932       173900       -0.147947
15.0018       174000       -0.149664
15.0104       174100       -0.151379
15.0191       174200       -0.153092
15.0277       174300       -0.154803
15.0363       174400       -0.156513
15.0449       174500       -0.15822
15.0536       174600       -0.159926
15.0622       174700       -0.16163
15.0708       174800       -0.163332
15.0794       174900       -0.165033
15.088       175000       -0.166731
15.0967       175100       -0.168428
15.1053       175200       -0.170123
15.1139       175300       -0.171816
15.1225       175400       -0.173507
15.1312       175500       -0.175197
15.1398       175600       -0.176885
15.1484       175700       -0.178571
15.157       175800       -0.180255
15.1656       175900       -0.181937
15.1743       176000       -0.183618
15.1829       176100       -0.185297
15.1915       176200       -0.186974
15.2001       176300       -0.188649
15.2087       176400       -0.190322
15.2174       176500       -0.191994
15.226       176600       -0.193664
15.2346       176700       -0.195332
15.2432       176800       -0.196998
15.2519       176900       -0.198663
15.2605       177000       -0.200326
15.2691       177100       -0.201987
15.2777       177200       -0.203646
15.2863       177300       -0.205304
15.295       177400       -0.20696
15.3036       177500       -0.208614
15.3122       177600       -0.210266
15.3208       177700       -0.211917
15.3295       177800       -0.213566
15.3381       177900       -0.215213
15.3467       178000       -0.216858
15.3553       178100       -0.218502
15.3639       178200       -0.220144
15.3726       178300       -0.221784
15.3812       178400       -0.223423
15.3898       178500       -0.225059
15.3984       178600       -0.226694
15.407       178700       -0.228328
15.4157       178800       -0.229959
15.4243       178900       -0.231589
15.4329       179000       -0.233218
15.4415       179100       -0.234844
15.4502       179200       -0.236469
15.4588       179300       -0.238092
15.4674       179400       -0.239713
15.476       179500       -0.241333
15.4846       179600       -0.242951
15.4933       179700       -0.244568
15.5019       179800       -0.246182
15.5105       179900       -0.247795
15.5191       180000       -0.249407
15.5278       180100       -0.251016
15.5364       180200       -0.252624
15.545       180300       -0.25423
15.5536       180400       -0.255835
15.5622       180500       -0.257438
15.5709       180600       -0.259039
15.5795       180700       -0.260639
15.5881       180800       -0.262237
15.5967       180900       -0.263833
15.6053       181000       -0.265428
15.614       181100       -0.267021
15.6226       181200       -0.268612
15.6312       181300       -0.270202
15.6398       181400       -0.27179
15.6485       181500       -0.273376
15.6571       181600       -0.274961
15.6657       181700       -0.276544
15.6743       181800       -0.278125
15.6829       181900       -0.279705
15.6916       182000       -0.281283
15.7002       182100       -0.28286
15.7088       182200       -0.284435
15.7174       182300       -0.286008
15.7261       182400       -0.28758
15.7347       182500       -0.28915
15.7433       182600       -0.290719
15.7519       182700       -0.292285
15.7605       182800       -0.293851
15.7692       182900       -0.295414
15.7778       183000       -0.296976
15.7864       183100       -0.298537
15.795       183200       -0.300096
15.8036       183300       -0.301653
15.8123       183400       -0.303208
15.8209       183500       -0.304763
15.8295       183600       -0.306315
15.8381       183700       -0.307866
15.8468       183800       -0.309415
15.8554       183900       -0.310963
15.864       184000       -0.312509
15.8726       184100       -0.314053
15.8812       184200       -0.315596
15.8899       184300       -0.317138
15.8985       184400       -0.318677
15.9071       184500       -0.320216
15.9157       184600       -0.321752
15.9244       184700       -0.323287
15.933       184800       -0.324821
15.9416       184900       -0.326353
15.9502       185000       -0.327883
15.9588       185100       -0.329412
15.9675       185200       -0.330939
15.9761       185300       -0.332465
15.9847       185400       -0.333989
15.9933       185500       -0.335512
16.0019       185600       -0.337033
16.0106       185700       -0.338552
16.0192       185800       -0.34007
16.0278       185900       -0.341587
16.0364       186000       -0.343102
16.0451       186100       -0.344615
16.0537       186200       -0.346127
16.0623       186300       -0.347637
16.0709       186400       -0.349146
16.0795       186500       -0.350653
16.0882       186600       -0.352159
16.0968       186700       -0.353663
16.1054       186800       -0.355166
16.114       186900       -0.356667
16.1227       187000       -0.358167
16.1313       187100       -0.359665
16.1399       187200       -0.361162
16.1485       187300       -0.362657
16.1571       187400       -0.36415
16.1658       187500       -0.365642
16.1744       187600       -0.367133
16.183       187700       -0.368622
16.1916       187800       -0.37011
16.2002       187900       -0.371596
16.2089       188000       -0.373081
16.2175       188100       -0.374564
16.2261       188200       -0.376045
16.2347       188300       -0.377526
16.2434       188400       -0.379004
16.252       188500       -0.380481
16.2606       188600       -0.381957
16.2692       188700       -0.383431
16.2778       188800       -0.384904
16.2865       188900       -0.386375
16.2951       189000       -0.387845
16.3037       189100       -0.389314
16.3123       189200       -0.390781
16.321       189300       -0.392246
16.3296       189400       -0.39371
16.3382       189500       -0.395172
16.3468       189600       -0.396633
16.3554       189700       -0.398093
16.3641       189800       -0.399551
16.3727       189900       -0.401008
16.3813       190000       -0.402463
16.3899       190100       -0.403917
16.3985       190200       -0.405369
16.4072       190300       -0.40682
16.4158       190400       -0.408269
16.4244       190500       -0.409717
16.433       190600       -0.411164
16.4417       190700       -0.412609
16.4503       190800       -0.414053
16.4589       190900       -0.415495
16.4675       191000       -0.416936
16.4761       191100       -0.418375
16.4848       191200       -0.419813
16.4934       191300       -0.42125
16.502       191400       -0.422685
16.5106       191500       -0.424119
16.5193       191600       -0.425551
16.5279       191700       -0.426982
16.5365       191800       -0.428411
16.5451       191900       -0.429839
16.5537       192000       -0.431266
16.5624       192100       -0.432691
16.571       192200       -0.434115
16.5796       192300       -0.435537
16.5882       192400       -0.436958
16.5968       192500       -0.438378
16.6055       192600       -0.439796
16.6141       192700       -0.441213
16.6227       192800       -0.442628
16.6313       192900       -0.444043
16.64       193000       -0.445455
16.6486       193100       -0.446866
16.6572       193200       -0.448276
16.6658       193300       -0.449685
16.6744       193400       -0.451092
16.6831       193500       -0.452498
16.6917       193600       -0.453902
16.7003       193700       -0.455305
16.7089       193800       -0.456707
16.7175       193900       -0.458107
16.7262       194000       -0.459506
16.7348       194100       -0.460903
16.7434       194200       -0.462299
16.752       194300       -0.463694
16.7607       194400       -0.465087
16.7693       194500       -0.466479
16.7779       194600       -0.46787
16.7865       194700       -0.469259
16.7951       194800       -0.470647
16.8038       194900       -0.472034
16.8124       195000       -0.473419
16.821       195100       -0.474803
16.8296       195200       -0.476186
16.8383       195300       -0.477567
16.8469       195400       -0.478947
16.8555       195500       -0.480325
16.8641       195600       -0.481703
16.8727       195700       -0.483078
16.8814       195800       -0.484453
16.89       195900       -0.485826
16.8986       196000       -0.487198
16.9072       196100       -0.488569
16.9158       196200       -0.489938
16.9245       196300       -0.491306
16.9331       196400       -0.492672
16.9417       196500       -0.494037
16.9503       196600       -0.495401
16.959       196700       -0.496764
16.9676       196800       -0.498125
16.9762       196900       -0.499485
16.9848       197000       -0.500844
16.9934       197100       -0.502201
17.0021       197200       -0.503557
17.0107       197300       -0.504912
17.0193       197400       -0.506265
17.0279       197500       -0.507617
17.0366       197600       -0.508968
17.0452       197700       -0.510317
17.0538       197800       -0.511666
17.0624       197900       -0.513012
17.071       198000       -0.514358
17.0797       198100       -0.515702
17.0883       198200       -0.517045
17.0969       198300       -0.518387
17.1055       198400       -0.519727
17.1141       198500       -0.521067
17.1228       198600       -0.522404
17.1314       198700       -0.523741
17.14       198800       -0.525076
17.1486       198900       -0.52641
17.1573       199000       -0.527743
17.1659       199100       -0.529074
17.1745       199200       -0.530405
17.1831       199300       -0.531733
17.1917       199400       -0.533061
17.2004       199500       -0.534387
17.209       199600       -0.535713
17.2176       199700       -0.537036
17.2262       199800       -0.538359
17.2349       199900       -0.53968
17.2435       200000       -0.541
17.2521       200100       -0.542319
17.2607       200200       -0.543637
17.2693       200300       -0.544953
17.278       200400       -0.546268
17.2866       200500       -0.547582
17.2952       200600       -0.548894
17.3038       200700       -0.550205
17.3124       200800       -0.551515
17.3211       200900       -0.552824
17.3297       201000       -0.554132
17.3383       201100       -0.555438
17.3469       201200       -0.556743
17.3556       201300       -0.558047
17.3642       201400       -0.559349
17.3728       201500       -0.560651
17.3814       201600       -0.561951
17.39       201700       -0.56325
17.3987       201800       -0.564547
17.4073       201900       -0.565844
17.4159       202000       -0.567139
17.4245       202100       -0.568433
17.4332       202200       -0.569726
17.4418       202300       -0.571017
17.4504       202400       -0.572307
17.459       202500       -0.573596
17.4676       202600       -0.574884
17.4763       202700       -0.576171
17.4849       202800       -0.577456
17.4935       202900       -0.578741
17.5021       203000       -0.580024
17.5107       203100       -0.581305
17.5194       203200       -0.582586
17.528       203300       -0.583865
17.5366       203400       -0.585143
17.5452       203500       -0.58642
17.5539       203600       -0.587696
17.5625       203700       -0.588971
17.5711       203800       -0.590244
17.5797       203900       -0.591516
17.5883       204000       -0.592787
17.597       204100       -0.594057
17.6056       204200       -0.595326
17.6142       204300       -0.596593
17.6228       204400       -0.597859
17.6315       204500       -0.599124
17.6401       204600       -0.600388
17.6487       204700       -0.601651
17.6573       204800       -0.602912
17.6659       204900       -0.604173
17.6746       205000       -0.605432
17.6832       205100       -0.60669
17.6918       205200       -0.607947
17.7004       205300       -0.609202
17.709       205400       -0.610457
17.7177       205500       -0.61171
17.7263       205600       -0.612962
17.7349       205700       -0.614213
17.7435       205800       -0.615463
17.7522       205900       -0.616711
17.7608       206000       -0.617959
17.7694       206100       -0.619205
17.778       206200       -0.62045
17.7866       206300       -0.621694
17.7953       206400       -0.622937
17.8039       206500       -0.624178
17.8125       206600       -0.625419
17.8211       206700       -0.626658
17.8298       206800       -0.627896
17.8384       206900       -0.629133
17.847       207000       -0.630369
17.8556       207100       -0.631604
17.8642       207200       -0.632838
17.8729       207300       -0.63407
17.8815       207400       -0.635301
17.8901       207500       -0.636532
17.8987       207600       -0.637761
17.9073       207700       -0.638989
17.916       207800       -0.640215
17.9246       207900       -0.641441
17.9332       208000       -0.642665
17.9418       208100       -0.643889
17.9505       208200       -0.645111
17.9591       208300       -0.646332
17.9677       208400       -0.647552
17.9763       208500       -0.648771
17.9849       208600       -0.649989
17.9936       208700       -0.651205
18.0022       208800       -0.652421
18.0108       208900       -0.653635
18.0194       209000       -0.654849
18.0281       209100       -0.656061
18.0367       209200       -0.657272
18.0453       209300       -0.658482
18.0539       209400       -0.65969
18.0625       209500       -0.660898
18.0712       209600       -0.662105
18.0798       209700       -0.66331
18.0884       209800       -0.664515
18.097       209900       -0.665718
18.1056       210000       -0.66692
18.1143       210100       -0.668121
18.1229       210200       -0.669321
18.1315       210300       -0.67052
18.1401       210400       -0.671718
18.1488       210500       -0.672914
18.1574       210600       -0.67411
18.166       210700       -0.675304
18.1746       210800       -0.676498
18.1832       210900       -0.67769
18.1919       211000       -0.678881
18.2005       211100       -0.680071
18.2091       211200       -0.68126
18.2177       211300       -0.682448
18.2264       211400       -0.683635
18.235       211500       -0.684821
18.2436       211600       -0.686006
18.2522       211700       -0.687189
18.2608       211800       -0.688372
18.2695       211900       -0.689553
18.2781       212000       -0.690734
18.2867       212100       -0.691913
18.2953       212200       -0.693091
18.3039       212300       -0.694269
18.3126       212400       -0.695445
18.3212       212500       -0.69662
18.3298       212600       -0.697794
18.3384       212700       -0.698967
18.3471       212800       -0.700139
18.3557       212900       -0.701309
18.3643       213000       -0.702479
18.3729       213100       -0.703648
18.3815       213200       -0.704815
18.3902       213300       -0.705982
18.3988       213400       -0.707148
18.4074       213500       -0.708312
18.416       213600       -0.709475
18.4247       213700       -0.710638
18.4333       213800       -0.711799
18.4419       213900       -0.712959
18.4505       214000       -0.714118
18.4591       214100       -0.715277
18.4678       214200       -0.716434
18.4764       214300       -0.71759
18.485       214400       -0.718745
18.4936       214500       -0.719899
18.5022       214600       -0.721052
18.5109       214700       -0.722204
18.5195       214800       -0.723355
18.5281       214900       -0.724504
18.5367       215000       -0.725653
18.5454       215100       -0.726801
18.554       215200       -0.727948
18.5626       215300       -0.729093
18.5712       215400       -0.730238
18.5798       215500       -0.731382
18.5885       215600       -0.732524
18.5971       215700       -0.733666
18.6057       215800       -0.734807
18.6143       215900       -0.735946
18.623       216000       -0.737085
18.6316       216100       -0.738222
18.6402       216200       -0.739359
18.6488       216300       -0.740494
18.6574       216400       -0.741629
18.6661       216500       -0.742762
18.6747       216600       -0.743895
18.6833       216700       -0.745026
18.6919       216800       -0.746157
18.7005       216900       -0.747286
18.7092       217000       -0.748414
18.7178       217100       -0.749542
18.7264       217200       -0.750668
18.735       217300       -0.751794
18.7437       217400       -0.752918
18.7523       217500       -0.754041
18.7609       217600       -0.755164
18.7695       217700       -0.756285
18.7781       217800       -0.757405
18.7868       217900       -0.758525
18.7954       218000       -0.759643
18.804       218100       -0.760761
18.8126       218200       -0.761877
18.8213       218300       -0.762992
18.8299       218400       -0.764107
18.8385       218500       -0.76522
18.8471       218600       -0.766333
18.8557       218700       -0.767444
18.8644       218800       -0.768555
18.873       218900       -0.769664
18.8816       219000       -0.770773
18.8902       219100       -0.77188
18.8988       219200       -0.772987
18.9075       219300       -0.774092
18.9161       219400       -0.775197
18.9247       219500       -0.776301
18.9333       219600       -0.777403
18.942       219700       -0.778505
18.9506       219800       -0.779606
18.9592       219900       -0.780705
18.9678       220000       -0.781804
18.9764       220100       -0.782902
18.9851       220200       -0.783999
18.9937       220300       -0.785095
19.0023       220400       -0.78619
19.0109       220500       -0.787283
19.0196       220600       -0.788376
19.0282       220700       -0.789468
19.0368       220800       -0.790559
19.0454       220900       -0.79165
19.054       221000       -0.792739
19.0627       221100       -0.793827
19.0713       221200       -0.794914
19.0799       221300       -0.796
19.0885       221400       -0.797086
19.0971       221500       -0.79817
19.1058       221600       -0.799253
19.1144       221700       -0.800336
19.123       221800       -0.801417
19.1316       221900       -0.802498
19.1403       222000       -0.803577
19.1489       222100       -0.804656
19.1575       222200       -0.805734
19.1661       222300       -0.806811
19.1747       222400       -0.807886
19.1834       222500       -0.808961
19.192       222600       -0.810035
19.2006       222700       -0.811108
19.2092       222800       -0.81218
19.2179       222900       -0.813252
19.2265       223000       -0.814322
19.2351       223100       -0.815391
19.2437       223200       -0.816459
19.2523       223300       -0.817527
19.261       223400       -0.818593
19.2696       223500       -0.819659
19.2782       223600       -0.820723
19.2868       223700       -0.821787
19.2954       223800       -0.82285
19.3041       223900       -0.823912
19.3127       224000       -0.824973
19.3213       224100       -0.826033
19.3299       224200       -0.827092
19.3386       224300       -0.82815
19.3472       224400       -0.829207
19.3558       224500       -0.830263
19.3644       224600       -0.831319
19.373       224700       -0.832373
19.3817       224800       -0.833427
19.3903       224900       -0.83448
19.3989       225000       -0.835531
19.4075       225100       -0.836582
19.4162       225200       -0.837632
19.4248       225300       -0.838681
19.4334       225400       -0.839729
19.442       225500       -0.840776
19.4506       225600       -0.841823
19.4593       225700       -0.842868
19.4679       225800       -0.843913
19.4765       225900       -0.844956
19.4851       226000       -0.845999
19.4937       226100       -0.847041
19.5024       226200       -0.848082
19.511       226300       -0.849122
19.5196       226400       -0.850161
19.5282       226500       -0.851199
19.5369       226600       -0.852236
19.5455       226700       -0.853273
19.5541       226800       -0.854308
19.5627       226900       -0.855343
19.5713       227000       -0.856376
19.58       227100       -0.857409
19.5886       227200       -0.858441
19.5972       227300       -0.859472
19.6058       227400       -0.860503
19.6145       227500       -0.861532
19.6231       227600       -0.86256
19.6317       227700       -0.863588
19.6403       227800       -0.864615
19.6489       227900       -0.86564
19.6576       228000       -0.866665
19.6662       228100       -0.867689
19.6748       228200       -0.868712
19.6834       228300       -0.869735
19.692       228400       -0.870756
19.7007       228500       -0.871777
19.7093       228600       -0.872796
19.7179       228700       -0.873815
19.7265       228800       -0.874833
19.7352       228900       -0.87585
19.7438       229000       -0.876866
19.7524       229100       -0.877881
19.761       229200       -0.878896
19.7696       229300       -0.879909
19.7783       229400       -0.880922
19.7869       229500       -0.881934
19.7955       229600       -0.882945
19.8041       229700       -0.883955
19.8128       229800       -0.884964
19.8214       229900       -0.885973
19.83       230000       -0.88698
19.8386       230100       -0.887987
19.8472       230200       -0.888993
19.8559       230300       -0.889998
19.8645       230400       -0.891002
19.8731       230500       -0.892005
19.8817       230600       -0.893008
19.8903       230700       -0.894009
19.899       230800       -0.89501
19.9076       230900       -0.89601
19.9162       231000       -0.897009
19.9248       231100       -0.898007
19.9335       231200       -0.899004
19.9421       231300       -0.900001
19.9507       231400       -0.900996
19.9593       231500       -0.901991
19.9679       231600       -0.902985
19.9766       231700       -0.903978
19.9852       231800       -0.90497
19.9938       231900       -0.905962
20.0024       232000       -0.906952
20.0111       232100       -0.907942
20.0197       232200       -0.908931
20.0283       232300       -0.909919
20.0369       232400       -0.910906
20.0455       232500       -0.911893
20.0542       232600       -0.912878
20.0628       232700       -0.913863
20.0714       232800       -0.914847
20.08       232900       -0.91583
20.0886       233000       -0.916812
20.0973       233100       -0.917794
20.1059       233200       -0.918775
20.1145       233300       -0.919754
20.1231       233400       -0.920733
20.1318       233500       -0.921711
20.1404       233600       -0.922689
20.149       233700       -0.923665
20.1576       233800       -0.924641
20.1662       233900       -0.925616
20.1749       234000       -0.92659
20.1835       234100       -0.927563
20.1921       234200       -0.928535
20.2007       234300       -0.929507
20.2094       234400       -0.930478
20.218       234500       -0.931448
20.2266       234600       -0.932417
20.2352       234700       -0.933385
20.2438       234800       -0.934353
20.2525       234900       -0.935319
20.2611       235000       -0.936285
20.2697       235100       -0.93725
20.2783       235200       -0.938215
20.2869       235300       -0.939178
20.2956       235400       -0.940141
20.3042       235500       -0.941103
20.3128       235600       -0.942064
20.3214       235700       -0.943024
20.3301       235800       -0.943984
20.3387       235900       -0.944942
20.3473       236000       -0.9459
20.3559       236100       -0.946857
20.3645       236200       -0.947814
20.3732       236300       -0.948769
20.3818       236400       -0.949724
20.3904       236500       -0.950678
20.399       236600       -0.951631
20.4077       236700       -0.952583
20.4163       236800       -0.953535
20.4249       236900       -0.954485
20.4335       237000       -0.955435
20.4421       237100       -0.956384
20.4508       237200       -0.957333
20.4594       237300       -0.95828
20.468       237400       -0.959227
20.4766       237500       -0.960173
20.4852       237600       -0.961118
20.4939       237700       -0.962063
20.5025       237800       -0.963006
20.5111       237900       -0.963949
20.5197       238000       -0.964891
20.5284       238100       -0.965833
20.537       238200       -0.966773
20.5456       238300       -0.967713
20.5542       238400       -0.968652
20.5628       238500       -0.96959
20.5715       238600       -0.970528
20.5801       238700       -0.971464
20.5887       238800       -0.9724
20.5973       238900       -0.973335
20.606       239000       -0.97427
20.6146       239100       -0.975203
20.6232       239200       -0.976136
20.6318       239300       -0.977068
20.6404       239400       -0.977999
20.6491       239500       -0.97893
20.6577       239600       -0.979859
20.6663       239700       -0.980788
20.6749       239800       -0.981716
20.6835       239900       -0.982644
20.6922       240000       -0.983571
20.7008       240100       -0.984496
20.7094       240200       -0.985422
20.718       240300       -0.986346
20.7267       240400       -0.98727
20.7353       240500       -0.988192
20.7439       240600       -0.989115
20.7525       240700       -0.990036
20.7611       240800       -0.990957
20.7698       240900       -0.991876
20.7784       241000       -0.992795
20.787       241100       -0.993714
20.7956       241200       -0.994631
20.8043       241300       -0.995548
20.8129       241400       -0.996464
20.8215       241500       -0.99738
20.8301       241600       -0.998294
20.8387       241700       -0.999208
20.8474       241800       -1.00012
20.856       241900       -1.00103
20.8646       242000       -1.00195
20.8732       242100       -1.00286
20.8818       242200       -1.00377
20.8905       242300       -1.00468
20.8991       242400       -1.00558
20.9077       242500       -1.00649
20.9163       242600       -1.0074
20.925       242700       -1.00831
20.9336       242800       -1.00921
20.9422       242900       -1.01012
20.9508       243000       -1.01102
20.9594       243100       -1.01192
20.9681       243200       -1.01283
20.9767       243300       -1.01373
20.9853       243400       -1.01463
20.9939       243500       -1.01553
21.0026       243600       -1.01643
21.0112       243700       -1.01733
21.0198       243800       -1.01823
21.0284       243900       -1.01912
21.037       244000       -1.02002
21.0457       244100       -1.02092
21.0543       244200       -1.02181
21.0629       244300       -1.02271
21.0715       244400       -1.0236
21.0801       244500       -1.0245
21.0888       244600       -1.02539
21.0974       244700       -1.02628
21.106       244800       -1.02717
21.1146       244900       -1.02806
21.1233       245000       -1.02895
21.1319       245100       -1.02984
21.1405       245200       -1.03073
21.1491       245300       -1.03161
21.1577       245400       -1.0325
21.1664       245500       -1.03339
21.175       245600       -1.03427
21.1836       245700       -1.03516
21.1922       245800       -1.03604
21.2009       245900       -1.03692
21.2095       246000       -1.03781
21.2181       246100       -1.03869
21.2267       246200       -1.03957
21.2353       246300       -1.04045
21.244       246400       -1.04133
21.2526       246500       -1.04221
21.2612       246600       -1.04309
21.2698       246700       -1.04396
21.2784       246800       -1.04484
21.2871       246900       -1.04572
21.2957       247000       -1.04659
21.3043       247100       -1.04747
21.3129       247200       -1.04834
21.3216       247300       -1.04921
21.3302       247400       -1.05009
21.3388       247500       -1.05096
21.3474       247600       -1.05183
21.356       247700       -1.0527
21.3647       247800       -1.05357
21.3733       247900       -1.05444
21.3819       248000       -1.05531
21.3905       248100       -1.05618
21.3992       248200       -1.05704
21.4078       248300       -1.05791
21.4164       248400       -1.05877
21.425       248500       -1.05964
21.4336       248600       -1.0605
21.4423       248700       -1.06137
21.4509       248800       -1.06223
21.4595       248900       -1.06309
21.4681       249000       -1.06395
21.4767       249100       -1.06481
21.4854       249200       -1.06567
21.494       249300       -1.06653
21.5026       249400       -1.06739
21.5112       249500       -1.06825
21.5199       249600       -1.06911
21.5285       249700       -1.06996
21.5371       249800       -1.07082
21.5457       249900       -1.07168
21.5543       250000       -1.07253
21.563       250100       -1.07338
21.5716       250200       -1.07424
21.5802       250300       -1.07509
21.5888       250400       -1.07594
21.5975       250500       -1.07679
21.6061       250600       -1.07764
21.6147       250700       -1.07849
21.6233       250800       -1.07934
21.6319       250900       -1.08019
21.6406       251000       -1.08104
21.6492       251100       -1.08189
21.6578       251200       -1.08273
21.6664       251300       -1.08358
21.675       251400       -1.08442
21.6837       251500       -1.08527
21.6923       251600       -1.08611
21.7009       251700       -1.08696
21.7095       251800       -1.0878
21.7182       251900       -1.08864
21.7268       252000       -1.08948
21.7354       252100       -1.09032
21.744       252200       -1.09116
21.7526       252300       -1.092
21.7613       252400       -1.09284
21.7699       252500       -1.09368
21.7785       252600       -1.09451
21.7871       252700       -1.09535
21.7958       252800       -1.09619
21.8044       252900       -1.09702
21.813       253000       -1.09786
21.8216       253100       -1.09869
21.8302       253200       -1.09952
21.8389       253300       -1.10036
21.8475       253400       -1.10119
21.8561       253500       -1.10202
21.8647       253600       -1.10285
21.8733       253700       -1.10368
21.882       253800       -1.10451
21.8906       253900       -1.10534
21.8992       254000       -1.10617
21.9078       254100       -1.10699
21.9165       254200       -1.10782
21.9251       254300       -1.10865
21.9337       254400       -1.10947
21.9423       254500       -1.1103
21.9509       254600       -1.11112
21.9596       254700       -1.11194
21.9682       254800       -1.11277
21.9768       254900       -1.11359
21.9854       255000       -1.11441
21.9941       255100       -1.11523
22.0027       255200       -1.11605
22.0113       255300       -1.11687
22.0199       255400       -1.11769
22.0285       255500       -1.11851
22.0372       255600       -1.11933
22.0458       255700       -1.12014
22.0544       255800       -1.12096
22.063       255900       -1.12178
22.0716       256000       -1.12259
22.0803       256100       -1.1234
22.0889       256200       -1.12422
22.0975       256300       -1.12503
22.1061       256400       -1.12584
22.1148       256500       -1.12666
22.1234       256600       -1.12747
22.132       256700       -1.12828
22.1406       256800       -1.12909
22.1492       256900       -1.1299
22.1579       257000       -1.13071
22.1665       257100       -1.13151
22.1751       257200       -1.13232
22.1837       257300       -1.13313
22.1924       257400       -1.13394
22.201       257500       -1.13474
22.2096       257600       -1.13555
22.2182       257700       -1.13635
22.2268       257800       -1.13715
22.2355       257900       -1.13796
22.2441       258000       -1.13876
22.2527       258100       -1.13956
22.2613       258200       -1.14036
22.2699       258300       -1.14116
22.2786       258400       -1.14196
22.2872       258500       -1.14276
22.2958       258600       -1.14356
22.3044       258700       -1.14436
22.3131       258800       -1.14516
22.3217       258900       -1.14595
22.3303       259000       -1.14675
22.3389       259100       -1.14755
22.3475       259200       -1.14834
22.3562       259300       -1.14914
22.3648       259400       -1.14993
22.3734       259500       -1.15072
22.382       259600       -1.15152
22.3907       259700       -1.15231
22.3993       259800       -1.1531
22.4079       259900       -1.15389
22.4165       260000       -1.15468
22.4251       260100       -1.15547
22.4338       260200       -1.15626
22.4424       260300       -1.15705
22.451       260400       -1.15783
22.4596       260500       -1.15862
22.4682       260600       -1.15941
22.4769       260700       -1.16019
22.4855       260800       -1.16098
22.4941       260900       -1.16176
22.5027       261000       -1.16255
22.5114       261100       -1.16333
22.52       261200       -1.16411
22.5286       261300       -1.1649
22.5372       261400       -1.16568
22.5458       261500       -1.16646
22.5545       261600       -1.16724
22.5631       261700       -1.16802
22.5717       261800       -1.1688
22.5803       261900       -1.16958
22.589       262000       -1.17036
22.5976       262100       -1.17113
22.6062       262200       -1.17191
22.6148       262300       -1.17269
22.6234       262400       -1.17346
22.6321       262500       -1.17424
22.6407       262600       -1.17501
22.6493       262700       -1.17579
22.6579       262800       -1.17656
22.6665       262900       -1.17733
22.6752       263000       -1.1781
22.6838       263100       -1.17888
22.6924       263200       -1.17965
22.701       263300       -1.18042
22.7097       263400       -1.18119
22.7183       263500       -1.18196
22.7269       263600       -1.18273
22.7355       263700       -1.18349
22.7441       263800       -1.18426
22.7528       263900       -1.18503
22.7614       264000       -1.18579
22.77       264100       -1.18656
22.7786       264200       -1.18733
22.7873       264300       -1.18809
22.7959       264400       -1.18885
22.8045       264500       -1.18962
22.8131       264600       -1.19038
22.8217       264700       -1.19114
22.8304       264800       -1.1919
22.839       264900       -1.19266
22.8476       265000       -1.19343
22.8562       265100       -1.19419
22.8648       265200       -1.19494
22.8735       265300       -1.1957
22.8821       265400       -1.19646
22.8907       265500       -1.19722
22.8993       265600       -1.19798
22.908       265700       -1.19873
22.9166       265800       -1.19949
22.9252       265900       -1.20024
22.9338       266000       -1.201
22.9424       266100       -1.20175
22.9511       266200       -1.20251
22.9597       266300       -1.20326
22.9683       266400       -1.20401
22.9769       266500       -1.20476
22.9856       266600       -1.20551
22.9942       266700       -1.20627
23.0028       266800       -1.20702
23.0114       266900       -1.20777
23.02       267000       -1.20851
23.0287       267100       -1.20926
23.0373       267200       -1.21001
23.0459       267300       -1.21076
23.0545       267400       -1.2115
23.0631       267500       -1.21225
23.0718       267600       -1.213
23.0804       267700       -1.21374
23.089       267800       -1.21449
23.0976       267900       -1.21523
23.1063       268000       -1.21597
23.1149       268100       -1.21672
23.1235       268200       -1.21746
23.1321       268300       -1.2182
23.1407       268400       -1.21894
23.1494       268500       -1.21968
23.158       268600       -1.22042
23.1666       268700       -1.22116
23.1752       268800       -1.2219
23.1839       268900       -1.22264
23.1925       269000       -1.22338
23.2011       269100       -1.22411
23.2097       269200       -1.22485
23.2183       269300       -1.22559
23.227       269400       -1.22632
23.2356       269500       -1.22706
23.2442       269600       -1.22779
23.2528       269700       -1.22853
23.2614       269800       -1.22926
23.2701       269900       -1.22999
23.2787       270000       -1.23072
23.2873       270100       -1.23146
23.2959       270200       -1.23219
23.3046       270300       -1.23292
23.3132       270400       -1.23365
23.3218       270500       -1.23438
23.3304       270600       -1.23511
23.339       270700       -1.23584
23.3477       270800       -1.23656
23.3563       270900       -1.23729
23.3649       271000       -1.23802
23.3735       271100       -1.23874
23.3822       271200       -1.23947
23.3908       271300       -1.24019
23.3994       271400       -1.24092
23.408       271500       -1.24164
23.4166       271600       -1.24237
23.4253       271700       -1.24309
23.4339       271800       -1.24381
23.4425       271900       -1.24453
23.4511       272000       -1.24526
23.4597       272100       -1.24598
23.4684       272200       -1.2467
23.477       272300       -1.24742
23.4856       272400       -1.24814
23.4942       272500       -1.24886
23.5029       272600       -1.24957
23.5115       272700       -1.25029
23.5201       272800       -1.25101
23.5287       272900       -1.25173
23.5373       273000       -1.25244
23.546       273100       -1.25316
23.5546       273200       -1.25387
23.5632       273300       -1.25459
23.5718       273400       -1.2553
23.5805       273500       -1.25601
23.5891       273600       -1.25673
23.5977       273700       -1.25744
23.6063       273800       -1.25815
23.6149       273900       -1.25886
23.6236       274000       -1.25957
23.6322       274100       -1.26028
23.6408       274200       -1.26099
23.6494       274300       -1.2617
23.658       274400       -1.26241
23.6667       274500       -1.26312
23.6753       274600       -1.26383
23.6839       274700       -1.26453
23.6925       274800       -1.26524
23.7012       274900       -1.26595
23.7098       275000       -1.26665
23.7184       275100       -1.26736
23.727       275200       -1.26806
23.7356       275300       -1.26877
23.7443       275400       -1.26947
23.7529       275500       -1.27017
23.7615       275600       -1.27087
23.7701       275700       -1.27158
23.7788       275800       -1.27228
23.7874       275900       -1.27298
23.796       276000       -1.27368
23.8046       276100       -1.27438
23.8132       276200       -1.27508
23.8219       276300       -1.27578
23.8305       276400       -1.27648
23.8391       276500       -1.27717
23.8477       276600       -1.27787
23.8563       276700       -1.27857
23.865       276800       -1.27926
23.8736       276900       -1.27996
23.8822       277000       -1.28065
23.8908       277100       -1.28135
23.8995       277200       -1.28204
23.9081       277300       -1.28274
23.9167       277400       -1.28343
23.9253       277500       -1.28412
23.9339       277600       -1.28482
23.9426       277700       -1.28551
23.9512       277800       -1.2862
23.9598       277900       -1.28689
23.9684       278000       -1.28758
23.9771       278100       -1.28827
23.9857       278200       -1.28896
23.9943       278300       -1.28965
24.0029       278400       -1.29033
24.0115       278500       -1.29102
24.0202       278600       -1.29171
24.0288       278700       -1.2924
24.0374       278800       -1.29308
24.046       278900       -1.29377
24.0546       279000       -1.29445
24.0633       279100       -1.29514
24.0719       279200       -1.29582
24.0805       279300       -1.29651
24.0891       279400       -1.29719
24.0978       279500       -1.29787
24.1064       279600       -1.29855
24.115       279700       -1.29923
24.1236       279800       -1.29992
24.1322       279900       -1.3006
24.1409       280000       -1.30128
24.1495       280100       -1.30196
24.1581       280200       -1.30264
24.1667       280300       -1.30331
24.1754       280400       -1.30399
24.184       280500       -1.30467
24.1926       280600       -1.30535
24.2012       280700       -1.30602
24.2098       280800       -1.3067
24.2185       280900       -1.30738
24.2271       281000       -1.30805
24.2357       281100       -1.30873
24.2443       281200       -1.3094
24.2529       281300       -1.31007
24.2616       281400       -1.31075
24.2702       281500       -1.31142
24.2788       281600       -1.31209
24.2874       281700       -1.31276
24.2961       281800       -1.31343
24.3047       281900       -1.31411
24.3133       282000       -1.31478
24.3219       282100       -1.31545
24.3305       282200       -1.31612
24.3392       282300       -1.31678
24.3478       282400       -1.31745
24.3564       282500       -1.31812
24.365       282600       -1.31879
24.3737       282700       -1.31945
24.3823       282800       -1.32012
24.3909       282900       -1.32079
24.3995       283000       -1.32145
24.4081       283100       -1.32212
24.4168       283200       -1.32278
24.4254       283300       -1.32345
24.434       283400       -1.32411
24.4426       283500       -1.32477
24.4512       283600       -1.32544
24.4599       283700       -1.3261
24.4685       283800       -1.32676
24.4771       283900       -1.32742
24.4857       284000       -1.32808
24.4944       284100       -1.32874
24.503       284200       -1.3294
24.5116       284300       -1.33006
24.5202       284400       -1.33072
24.5288       284500       -1.33138
24.5375       284600       -1.33204
24.5461       284700       -1.33269
24.5547       284800       -1.33335
24.5633       284900       -1.33401
24.572       285000       -1.33466
24.5806       285100       -1.33532
24.5892       285200       -1.33597
24.5978       285300       -1.33663
24.6064       285400       -1.33728
24.6151       285500       -1.33794
24.6237       285600       -1.33859
24.6323       285700       -1.33924
24.6409       285800       -1.33989
24.6495       285900       -1.34054
24.6582       286000       -1.3412
24.6668       286100       -1.34185
24.6754       286200       -1.3425
24.684       286300       -1.34315
24.6927       286400       -1.3438
24.7013       286500       -1.34445
24.7099       286600       -1.34509
24.7185       286700       -1.34574
24.7271       286800       -1.34639
24.7358       286900       -1.34704
24.7444       287000       -1.34768
24.753       287100       -1.34833
24.7616       287200       -1.34898
24.7703       287300       -1.34962
24.7789       287400       -1.35027
24.7875       287500       -1.35091
24.7961       287600       -1.35155
24.8047       287700       -1.3522
24.8134       287800       -1.35284
24.822       287900       -1.35348
24.8306       288000       -1.35412
24.8392       288100       -1.35477
24.8478       288200       -1.35541
24.8565       288300       -1.35605
24.8651       288400       -1.35669
24.8737       288500       -1.35733
24.8823       288600       -1.35797
24.891       288700       -1.35861
24.8996       288800       -1.35924
24.9082       288900       -1.35988
24.9168       289000       -1.36052
24.9254       289100       -1.36116
24.9341       289200       -1.36179
24.9427       289300       -1.36243
24.9513       289400       -1.36306
24.9599       289500       -1.3637
24.9686       289600       -1.36433
24.9772       289700       -1.36497
24.9858       289800       -1.3656
24.9944       289900       -1.36624
25.003       290000       -1.36687
25.0117       290100       -1.3675
25.0203       290200       -1.36813
25.0289       290300       -1.36877
25.0375       290400       -1.3694
25.0461       290500       -1.37003
25.0548       290600       -1.37066
25.0634       290700       -1.37129
25.072       290800       -1.37192
25.0806       290900       -1.37255
25.0893       291000       -1.37317
25.0979       291100       -1.3738
25.1065       291200       -1.37443
25.1151       291300       -1.37506
25.1237       291400       -1.37568
25.1324       291500       -1.37631
25.141       291600       -1.37694
25.1496       291700       -1.37756
25.1582       291800       -1.37819
25.1669       291900       -1.37881
25.1755       292000       -1.37943
25.1841       292100       -1.38006
25.1927       292200       -1.38068
25.2013       292300       -1.3813
25.21       292400       -1.38193
25.2186       292500       -1.38255
25.2272       292600       -1.38317
25.2358       292700       -1.38379
25.2444       292800       -1.38441
25.2531       292900       -1.38503
25.2617       293000       -1.38565
25.2703       293100       -1.38627
25.2789       293200       -1.38689
25.2876       293300       -1.38751
25.2962       293400       -1.38813
25.3048       293500       -1.38874
25.3134       293600       -1.38936
25.322       293700       -1.38998
25.3307       293800       -1.39059
25.3393       293900       -1.39121
25.3479       294000       -1.39182
25.3565       294100       -1.39244
25.3652       294200       -1.39305
25.3738       294300       -1.39367
25.3824       294400       -1.39428
25.391       294500       -1.39489
25.3996       294600       -1.39551
25.4083       294700       -1.39612
25.4169       294800       -1.39673
25.4255       294900       -1.39734
25.4341       295000       -1.39795
25.4427       295100       -1.39856
25.4514       295200       -1.39917
25.46       295300       -1.39978
25.4686       295400       -1.40039
25.4772       295500       -1.401
25.4859       295600       -1.40161
25.4945       295700       -1.40222
25.5031       295800       -1.40283
25.5117       295900       -1.40343
25.5203       296000       -1.40404
25.529       296100       -1.40465
25.5376       296200       -1.40525
25.5462       296300       -1.40586
25.5548       296400       -1.40646
25.5635       296500       -1.40707
25.5721       296600       -1.40767
25.5807       296700       -1.40828
25.5893       296800       -1.40888
25.5979       296900       -1.40948
25.6066       297000       -1.41009
25.6152       297100       -1.41069
25.6238       297200       -1.41129
25.6324       297300       -1.41189
25.641       297400       -1.41249
25.6497       297500       -1.41309
25.6583       297600       -1.41369
25.6669       297700       -1.41429
25.6755       297800       -1.41489
25.6842       297900       -1.41549
25.6928       298000       -1.41609
25.7014       298100       -1.41669
25.71       298200       -1.41728
25.7186       298300       -1.41788
25.7273       298400       -1.41848
25.7359       298500       -1.41907
25.7445       298600       -1.41967
25.7531       298700       -1.42027
25.7618       298800       -1.42086
25.7704       298900       -1.42146
25.779       299000       -1.42205
25.7876       299100       -1.42264
25.7962       299200       -1.42324
25.8049       299300       -1.42383
25.8135       299400       -1.42442
25.8221       299500       -1.42501
25.8307       299600       -1.42561
25.8393       299700       -1.4262
25.848       299800       -1.42679
25.8566       299900       -1.42738
25.8652       300000       -1.42797
25.8738       300100       -1.42856
25.8825       300200       -1.42915
25.8911       300300       -1.42974
25.8997       300400       -1.43033
25.9083       300500       -1.43091
25.9169       300600       -1.4315
25.9256       300700       -1.43209
25.9342       300800       -1.43268
25.9428       300900       -1.43326
25.9514       301000       -1.43385
25.9601       301100       -1.43443
25.9687       301200       -1.43502
25.9773       301300       -1.4356
25.9859       301400       -1.43619
25.9945       301500       -1.43677
26.0032       301600       -1.43736
26.0118       301700       -1.43794
26.0204       301800       -1.43852
26.029       301900       -1.43911
26.0376       302000       -1.43969
26.0463       302100       -1.44027
26.0549       302200       -1.44085
26.0635       302300       -1.44143
26.0721       302400       -1.44201
26.0808       302500       -1.44259
26.0894       302600       -1.44317
26.098       302700       -1.44375
26.1066       302800       -1.44433
26.1152       302900       -1.44491
26.1239       303000       -1.44549
26.1325       303100       -1.44606
26.1411       303200       -1.44664
26.1497       303300       -1.44722
26.1584       303400       -1.44779
26.167       303500       -1.44837
26.1756       303600       -1.44895
26.1842       303700       -1.44952
26.1928       303800       -1.4501
26.2015       303900       -1.45067
26.2101       304000       -1.45125
26.2187       304100       -1.45182
26.2273       304200       -1.45239
26.2359       304300       -1.45297
26.2446       304400       -1.45354
26.2532       304500       -1.45411
26.2618       304600       -1.45468
26.2704       304700       -1.45525
26.2791       304800       -1.45582
26.2877       304900       -1.45639
26.2963       305000       -1.45697
26.3049       305100       -1.45754
26.3135       305200       -1.4581
26.3222       305300       -1.45867
26.3308       305400       -1.45924
26.3394       305500       -1.45981
26.348       305600       -1.46038
26.3567       305700       -1.46095
26.3653       305800       -1.46151
26.3739       305900       -1.46208
26.3825       306000       -1.46265
26.3911       306100       -1.46321
26.3998       306200       -1.46378
26.4084       306300       -1.46434
26.417       306400       -1.46491
26.4256       306500       -1.46547
26.4342       306600       -1.46604
26.4429       306700       -1.4666
26.4515       306800       -1.46716
26.4601       306900       -1.46773
26.4687       307000       -1.46829
26.4774       307100       -1.46885
26.486       307200       -1.46941
26.4946       307300       -1.46997
26.5032       307400       -1.47053
26.5118       307500       -1.4711
26.5205       307600       -1.47166
26.5291       307700       -1.47222
26.5377       307800       -1.47277
26.5463       307900       -1.47333
26.555       308000       -1.47389
26.5636       308100       -1.47445
26.5722       308200       -1.47501
26.5808       308300       -1.47557
26.5894       308400       -1.47612
26.5981       308500       -1.47668
26.6067       308600       -1.47724
26.6153       308700       -1.47779
26.6239       308800       -1.47835
26.6325       308900       -1.4789
26.6412       309000       -1.47946
26.6498       309100       -1.48001
26.6584       309200       -1.48057
26.667       309300       -1.48112
26.6757       309400       -1.48167
26.6843       309500       -1.48223
26.6929       309600       -1.48278
26.7015       309700       -1.48333
26.7101       309800       -1.48389
26.7188       309900       -1.48444
26.7274       310000       -1.48499
26.736       310100       -1.48554
26.7446       310200       -1.48609
26.7533       310300       -1.48664
26.7619       310400       -1.48719
26.7705       310500       -1.48774
26.7791       310600       -1.48829
26.7877       310700       -1.48884
26.7964       310800       -1.48938
26.805       310900       -1.48993
26.8136       311000       -1.49048
26.8222       311100       -1.49103
26.8308       311200       -1.49157
26.8395       311300       -1.49212
26.8481       311400       -1.49267
26.8567       311500       -1.49321
26.8653       311600       -1.49376
26.874       311700       -1.4943
26.8826       311800       -1.49485
26.8912       311900       -1.49539
26.8998       312000       -1.49593
26.9084       312100       -1.49648
26.9171       312200       -1.49702
26.9257       312300       -1.49756
26.9343       312400       -1.49811
26.9429       312500       -1.49865
26.9516       312600       -1.49919
26.9602       312700       -1.49973
26.9688       312800       -1.50027
26.9774       312900       -1.50081
26.986       313000       -1.50135
26.9947       313100       -1.50189
27.0033       313200       -1.50243
27.0119       313300       -1.50297
27.0205       313400       -1.50351
27.0291       313500       -1.50405
27.0378       313600       -1.50459
27.0464       313700       -1.50512
27.055       313800       -1.50566
27.0636       313900       -1.5062
27.0723       314000       -1.50673
27.0809       314100       -1.50727
27.0895       314200       -1.50781
27.0981       314300       -1.50834
27.1067       314400       -1.50888
27.1154       314500       -1.50941
27.124       314600       -1.50995
27.1326       314700       -1.51048
27.1412       314800       -1.51101
27.1499       314900       -1.51155
27.1585       315000       -1.51208
27.1671       315100       -1.51261
27.1757       315200       -1.51315
27.1843       315300       -1.51368
27.193       315400       -1.51421
27.2016       315500       -1.51474
27.2102       315600       -1.51527
27.2188       315700       -1.5158
27.2274       315800       -1.51633
27.2361       315900       -1.51686
27.2447       316000       -1.51739
27.2533       316100       -1.51792
27.2619       316200       -1.51845
27.2706       316300       -1.51898
27.2792       316400       -1.51951
27.2878       316500       -1.52003
27.2964       316600       -1.52056
27.305       316700       -1.52109
27.3137       316800       -1.52162
27.3223       316900       -1.52214
27.3309       317000       -1.52267
27.3395       317100       -1.52319
27.3482       317200       -1.52372
27.3568       317300       -1.52424
27.3654       317400       -1.52477
27.374       317500       -1.52529
27.3826       317600       -1.52582
27.3913       317700       -1.52634
27.3999       317800       -1.52686
27.4085       317900       -1.52739
27.4171       318000       -1.52791
27.4257       318100       -1.52843
27.4344       318200       -1.52895
27.443       318300       -1.52947
27.4516       318400       -1.53
27.4602       318500       -1.53052
27.4689       318600       -1.53104
27.4775       318700       -1.53156
27.4861       318800       -1.53208
27.4947       318900       -1.5326
27.5033       319000       -1.53311
27.512       319100       -1.53363
27.5206       319200       -1.53415
27.5292       319300       -1.53467
27.5378       319400       -1.53519
27.5465       319500       -1.5357
27.5551       319600       -1.53622
27.5637       319700       -1.53674
27.5723       319800       -1.53725
27.5809       319900       -1.53777
27.5896       320000       -1.53829
27.5982       320100       -1.5388
27.6068       320200       -1.53932
27.6154       320300       -1.53983
27.624       320400       -1.54035
27.6327       320500       -1.54086
27.6413       320600       -1.54137
27.6499       320700       -1.54189
27.6585       320800       -1.5424
27.6672       320900       -1.54291
27.6758       321000       -1.54342
27.6844       321100       -1.54394
27.693       321200       -1.54445
27.7016       321300       -1.54496
27.7103       321400       -1.54547
27.7189       321500       -1.54598
27.7275       321600       -1.54649
27.7361       321700       -1.547
27.7448       321800       -1.54751
27.7534       321900       -1.54802
27.762       322000       -1.54853
27.7706       322100       -1.54904
27.7792       322200       -1.54955
27.7879       322300       -1.55005
27.7965       322400       -1.55056
27.8051       322500       -1.55107
27.8137       322600       -1.55158
27.8223       322700       -1.55208
27.831       322800       -1.55259
27.8396       322900       -1.55309
27.8482       323000       -1.5536
27.8568       323100       -1.55411
27.8655       323200       -1.55461
27.8741       323300       -1.55511
27.8827       323400       -1.55562
27.8913       323500       -1.55612
27.8999       323600       -1.55663
27.9086       323700       -1.55713
27.9172       323800       -1.55763
27.9258       323900       -1.55814
27.9344       324000       -1.55864
27.9431       324100       -1.55914
27.9517       324200       -1.55964
27.9603       324300       -1.56014
27.9689       324400       -1.56064
27.9775       324500       -1.56114
27.9862       324600       -1.56164
27.9948       324700       -1.56214
28.0034       324800       -1.56264
28.012       324900       -1.56314
28.0206       325000       -1.56364
28.0293       325100       -1.56414
28.0379       325200       -1.56464
28.0465       325300       -1.56514
28.0551       325400       -1.56564
28.0638       325500       -1.56613
28.0724       325600       -1.56663
28.081       325700       -1.56713
28.0896       325800       -1.56762
28.0982       325900       -1.56812
28.1069       326000       -1.56862
28.1155       326100       -1.56911
28.1241       326200       -1.56961
28.1327       326300       -1.5701
28.1414       326400       -1.5706
28.15       326500       -1.57109
28.1586       326600       -1.57158
28.1672       326700       -1.57208
28.1758       326800       -1.57257
28.1845       326900       -1.57306
28.1931       327000       -1.57356
28.2017       327100       -1.57405
28.2103       327200       -1.57454
28.2189       327300       -1.57503
28.2276       327400       -1.57552
28.2362       327500       -1.57601
28.2448       327600       -1.5765
28.2534       327700       -1.577
28.2621       327800       -1.57749
28.2707       327900       -1.57798
28.2793       328000       -1.57846
28.2879       328100       -1.57895
28.2965       328200       -1.57944
28.3052       328300       -1.57993
28.3138       328400       -1.58042
28.3224       328500       -1.58091
28.331       328600       -1.58139
28.3397       328700       -1.58188
28.3483       328800       -1.58237
28.3569       328900       -1.58286
28.3655       329000       -1.58334
28.3741       329100       -1.58383
28.3828       329200       -1.58431
28.3914       329300       -1.5848
28.4       329400       -1.58528
28.4086       329500       -1.58577
28.4172       329600       -1.58625
28.4259       329700       -1.58674
28.4345       329800       -1.58722
28.4431       329900       -1.5877
28.4517       330000       -1.58819
28.4604       330100       -1.58867
28.469       330200       -1.58915
28.4776       330300       -1.58963
28.4862       330400       -1.59012
28.4948       330500       -1.5906
28.5035       330600       -1.59108
28.5121       330700       -1.59156
28.5207       330800       -1.59204
28.5293       330900       -1.59252
28.538       331000       -1.593
28.5466       331100       -1.59348
28.5552       331200       -1.59396
28.5638       331300       -1.59444
28.5724       331400       -1.59492
28.5811       331500       -1.5954
28.5897       331600       -1.59588
28.5983       331700       -1.59635
28.6069       331800       -1.59683
28.6155       331900       -1.59731
28.6242       332000       -1.59778
28.6328       332100       -1.59826
28.6414       332200       -1.59874
28.65       332300       -1.59921
28.6587       332400       -1.59969
28.6673       332500       -1.60017
28.6759       332600       -1.60064
28.6845       332700       -1.60112
28.6931       332800       -1.60159
28.7018       332900       -1.60206
28.7104       333000       -1.60254
28.719       333100       -1.60301
28.7276       333200       -1.60348
28.7363       333300       -1.60396
28.7449       333400       -1.60443
28.7535       333500       -1.6049
28.7621       333600       -1.60538
28.7707       333700       -1.60585
28.7794       333800       -1.60632
28.788       333900       -1.60679
28.7966       334000       -1.60726
28.8052       334100       -1.60773
28.8138       334200       -1.6082
28.8225       334300       -1.60867
28.8311       334400       -1.60914
28.8397       334500       -1.60961
28.8483       334600       -1.61008
28.857       334700       -1.61055
28.8656       334800       -1.61102
28.8742       334900       -1.61149
28.8828       335000       -1.61195
28.8914       335100       -1.61242
28.9001       335200       -1.61289
28.9087       335300       -1.61336
28.9173       335400       -1.61382
28.9259       335500       -1.61429
28.9346       335600       -1.61475
28.9432       335700       -1.61522
28.9518       335800       -1.61569
28.9604       335900       -1.61615
28.969       336000       -1.61662
28.9777       336100       -1.61708
28.9863       336200       -1.61755
28.9949       336300       -1.61801
29.0035       336400       -1.61847
29.0121       336500       -1.61894
29.0208       336600       -1.6194
29.0294       336700       -1.61986
29.038       336800       -1.62033
29.0466       336900       -1.62079
29.0553       337000       -1.62125
29.0639       337100       -1.62171
29.0725       337200       -1.62217
29.0811       337300       -1.62263
29.0897       337400       -1.62309
29.0984       337500       -1.62355
29.107       337600       -1.62402
29.1156       337700       -1.62448
29.1242       337800       -1.62493
29.1329       337900       -1.62539
29.1415       338000       -1.62585
29.1501       338100       -1.62631
29.1587       338200       -1.62677
29.1673       338300       -1.62723
29.176       338400       -1.62769
29.1846       338500       -1.62814
29.1932       338600       -1.6286
29.2018       338700       -1.62906
29.2104       338800       -1.62952
29.2191       338900       -1.62997
29.2277       339000       -1.63043
29.2363       339100       -1.63088
29.2449       339200       -1.63134
29.2536       339300       -1.6318
29.2622       339400       -1.63225
29.2708       339500       -1.6327
29.2794       339600       -1.63316
29.288       339700       -1.63361
29.2967       339800       -1.63407
29.3053       339900       -1.63452
29.3139       340000       -1.63497
29.3225       340100       -1.63543
29.3312       340200       -1.63588
29.3398       340300       -1.63633
29.3484       340400       -1.63678
29.357       340500       -1.63724
29.3656       340600       -1.63769
29.3743       340700       -1.63814
29.3829       340800       -1.63859
29.3915       340900       -1.63904
29.4001       341000       -1.63949
29.4087       341100       -1.63994
29.4174       341200       -1.64039
29.426       341300       -1.64084
29.4346       341400       -1.64129
29.4432       341500       -1.64174
29.4519       341600       -1.64219
29.4605       341700       -1.64264
29.4691       341800       -1.64309
29.4777       341900       -1.64353
29.4863       342000       -1.64398
29.495       342100       -1.64443
29.5036       342200       -1.64488
29.5122       342300       -1.64532
29.5208       342400       -1.64577
29.5295       342500       -1.64622
29.5381       342600       -1.64666
29.5467       342700       -1.64711
29.5553       342800       -1.64755
29.5639       342900       -1.648
29.5726       343000       -1.64844
29.5812       343100       -1.64889
29.5898       343200       -1.64933
29.5984       343300       -1.64978
29.607       343400       -1.65022
29.6157       343500       -1.65066
29.6243       343600       -1.65111
29.6329       343700       -1.65155
29.6415       343800       -1.65199
29.6502       343900       -1.65243
29.6588       344000       -1.65288
29.6674       344100       -1.65332
29.676       344200       -1.65376
29.6846       344300       -1.6542
29.6933       344400       -1.65464
29.7019       344500       -1.65508
29.7105       344600       -1.65552
29.7191       344700       -1.65596
29.7278       344800       -1.6564
29.7364       344900       -1.65684
29.745       345000       -1.65728
29.7536       345100       -1.65772
29.7622       345200       -1.65816
29.7709       345300       -1.6586
29.7795       345400       -1.65904
29.7881       345500       -1.65947
29.7967       345600       -1.65991
29.8053       345700       -1.66035
29.814       345800       -1.66079
29.8226       345900       -1.66122
29.8312       346000       -1.66166
29.8398       346100       -1.6621
29.8485       346200       -1.66253
29.8571       346300       -1.66297
29.8657       346400       -1.6634
29.8743       346500       -1.66384
29.8829       346600       -1.66427
29.8916       346700       -1.66471
29.9002       346800       -1.66514
29.9088       346900       -1.66558
29.9174       347000       -1.66601
29.9261       347100       -1.66644
29.9347       347200       -1.66688
29.9433       347300       -1.66731
29.9519       347400       -1.66774
29.9605       347500       -1.66818
29.9692       347600       -1.66861
29.9778       347700       -1.66904
29.9864       347800       -1.66947
29.995       347900       -1.6699
30.0036       348000       -1.67034
30.0123       348100       -1.67077
30.0209       348200       -1.6712
30.0295       348300       -1.67163
30.0381       348400       -1.67206
30.0468       348500       -1.67249
30.0554       348600       -1.67292
30.064       348700       -1.67335
30.0726       348800       -1.67378
30.0812       348900       -1.6742
30.0899       349000       -1.67463
30.0985       349100       -1.67506
30.1071       349200       -1.67549
30.1157       349300       -1.67592
30.1244       349400       -1.67634
30.133       349500       -1.67677
30.1416       349600       -1.6772
30.1502       349700       -1.67763
30.1588       349800       -1.67805
30.1675       349900       -1.67848
30.1761       350000       -1.6789
30.1847       350100       -1.67933
30.1933       350200       -1.67976
30.2019       350300       -1.68018
30.2106       350400       -1.68061
30.2192       350500       -1.68103
30.2278       350600       -1.68145
30.2364       350700       -1.68188
30.2451       350800       -1.6823
30.2537       350900       -1.68273
30.2623       351000       -1.68315
30.2709       351100       -1.68357
30.2795       351200       -1.68399
30.2882       351300       -1.68442
30.2968       351400       -1.68484
30.3054       351500       -1.68526
30.314       351600       -1.68568
30.3227       351700       -1.6861
30.3313       351800       -1.68653
30.3399       351900       -1.68695
30.3485       352000       -1.68737
30.3571       352100       -1.68779
30.3658       352200       -1.68821
30.3744       352300       -1.68863
30.383       352400       -1.68905
30.3916       352500       -1.68947
30.4002       352600       -1.68989
30.4089       352700       -1.69031
30.4175       352800       -1.69072
30.4261       352900       -1.69114
30.4347       353000       -1.69156
30.4434       353100       -1.69198
30.452       353200       -1.6924
30.4606       353300       -1.69281
30.4692       353400       -1.69323
30.4778       353500       -1.69365
30.4865       353600       -1.69406
30.4951       353700       -1.69448
30.5037       353800       -1.6949
30.5123       353900       -1.69531
30.521       354000       -1.69573
30.5296       354100       -1.69614
30.5382       354200       -1.69656
30.5468       354300       -1.69697
30.5554       354400       -1.69739
30.5641       354500       -1.6978
30.5727       354600       -1.69822
30.5813       354700       -1.69863
30.5899       354800       -1.69904
30.5985       354900       -1.69946
30.6072       355000       -1.69987
30.6158       355100       -1.70028
30.6244       355200       -1.70069
30.633       355300       -1.70111
30.6417       355400       -1.70152
30.6503       355500       -1.70193
30.6589       355600       -1.70234
30.6675       355700       -1.70275
30.6761       355800       -1.70316
30.6848       355900       -1.70358
30.6934       356000       -1.70399
30.702       356100       -1.7044
30.7106       356200       -1.70481
30.7193       356300       -1.70522
30.7279       356400       -1.70563
30.7365       356500       -1.70603
30.7451       356600       -1.70644
30.7537       356700       -1.70685
30.7624       356800       -1.70726
30.771       356900       -1.70767
30.7796       357000       -1.70808
30.7882       357100       -1.70849
30.7968       357200       -1.70889
30.8055       357300       -1.7093
30.8141       357400       -1.70971
30.8227       357500       -1.71011
30.8313       357600       -1.71052
30.84       357700       -1.71093
30.8486       357800       -1.71133
30.8572       357900       -1.71174
30.8658       358000       -1.71214
30.8744       358100       -1.71255
30.8831       358200       -1.71295
30.8917       358300       -1.71336
30.9003       358400       -1.71376
30.9089       358500       -1.71417
30.9176       358600       -1.71457
30.9262       358700       -1.71498
30.9348       358800       -1.71538
30.9434       358900       -1.71578
30.952       359000       -1.71619
30.9607       359100       -1.71659
30.9693       359200       -1.71699
30.9779       359300       -1.71739
30.9865       359400       -1.7178
30.9951       359500       -1.7182
31.0038       359600       -1.7186
31.0124       359700       -1.719
31.021       359800       -1.7194
31.0296       359900       -1.7198
31.0383       360000       -1.7202
31.0469       360100       -1.7206
31.0555       360200       -1.721
31.0641       360300       -1.7214
31.0727       360400       -1.7218
31.0814       360500       -1.7222
31.09       360600       -1.7226
31.0986       360700       -1.723
31.1072       360800       -1.7234
31.1159       360900       -1.7238
31.1245       361000       -1.7242
31.1331       361100       -1.7246
31.1417       361200       -1.72499
31.1503       361300       -1.72539
31.159       361400       -1.72579
31.1676       361500       -1.72618
31.1762       361600       -1.72658
31.1848       361700       -1.72698
31.1934       361800       -1.72737
31.2021       361900       -1.72777
31.2107       362000       -1.72817
31.2193       362100       -1.72856
31.2279       362200       -1.72896
31.2366       362300       -1.72935
31.2452       362400       -1.72975
31.2538       362500       -1.73014
31.2624       362600       -1.73054
31.271       362700       -1.73093
31.2797       362800       -1.73132
31.2883       362900       -1.73172
31.2969       363000       -1.73211
31.3055       363100       -1.73251
31.3142       363200       -1.7329
31.3228       363300       -1.73329
31.3314       363400       -1.73368
31.34       363500       -1.73408
31.3486       363600       -1.73447
31.3573       363700       -1.73486
31.3659       363800       -1.73525
31.3745       363900       -1.73564
31.3831       364000       -1.73603
31.3917       364100       -1.73642
31.4004       364200       -1.73682
31.409       364300       -1.73721
31.4176       364400       -1.7376
31.4262       364500       -1.73799
31.4349       364600       -1.73838
31.4435       364700       -1.73877
31.4521       364800       -1.73915
31.4607       364900       -1.73954
31.4693       365000       -1.73993
31.478       365100       -1.74032
31.4866       365200       -1.74071
31.4952       365300       -1.7411
31.5038       365400       -1.74149
31.5125       365500       -1.74187
31.5211       365600       -1.74226
31.5297       365700       -1.74265
31.5383       365800       -1.74303
31.5469       365900       -1.74342
31.5556       366000       -1.74381
31.5642       366100       -1.74419
31.5728       366200       -1.74458
31.5814       366300       -1.74497
31.59       366400       -1.74535
31.5987       366500       -1.74574
31.6073       366600       -1.74612
31.6159       366700       -1.74651
31.6245       366800       -1.74689
31.6332       366900       -1.74728
31.6418       367000       -1.74766
31.6504       367100       -1.74804
31.659       367200       -1.74843
31.6676       367300       -1.74881
31.6763       367400       -1.74919
31.6849       367500       -1.74958
31.6935       367600       -1.74996
31.7021       367700       -1.75034
31.7108       367800       -1.75072
31.7194       367900       -1.75111
31.728       368000       -1.75149
31.7366       368100       -1.75187
31.7452       368200       -1.75225
31.7539       368300       -1.75263
31.7625       368400       -1.75301
31.7711       368500       -1.75339
31.7797       368600       -1.75377
31.7883       368700       -1.75416
31.797       368800       -1.75454
31.8056       368900       -1.75492
31.8142       369000       -1.75529
31.8228       369100       -1.75567
31.8315       369200       -1.75605
31.8401       369300       -1.75643
31.8487       369400       -1.75681
31.8573       369500       -1.75719
31.8659       369600       -1.75757
31.8746       369700       -1.75795
31.8832       369800       -1.75832
31.8918       369900       -1.7587
31.9004       370000       -1.75908
31.9091       370100       -1.75946
31.9177       370200       -1.75983
31.9263       370300       -1.76021
31.9349       370400       -1.76059
31.9435       370500       -1.76096
31.9522       370600       -1.76134
31.9608       370700       -1.76171
31.9694       370800       -1.76209
31.978       370900       -1.76246
31.9866       371000       -1.76284
31.9953       371100       -1.76321
32.0039       371200       -1.76359
32.0125       371300       -1.76396
32.0211       371400       -1.76434
32.0298       371500       -1.76471
32.0384       371600       -1.76509
32.047       371700       -1.76546
32.0556       371800       -1.76583
32.0642       371900       -1.76621
32.0729       372000       -1.76658
32.0815       372100       -1.76695
32.0901       372200       -1.76732
32.0987       372300       -1.7677
32.1074       372400       -1.76807
32.116       372500       -1.76844
32.1246       372600       -1.76881
32.1332       372700       -1.76918
32.1418       372800       -1.76955
32.1505       372900       -1.76993
32.1591       373000       -1.7703
32.1677       373100       -1.77067
32.1763       373200       -1.77104
32.1849       373300       -1.77141
32.1936       373400       -1.77178
32.2022       373500       -1.77215
32.2108       373600       -1.77252
32.2194       373700       -1.77289
32.2281       373800       -1.77325
32.2367       373900       -1.77362
32.2453       374000       -1.77399
32.2539       374100       -1.77436
32.2625       374200       -1.77473
32.2712       374300       -1.7751
32.2798       374400       -1.77546
32.2884       374500       -1.77583
32.297       374600       -1.7762
32.3057       374700       -1.77657
32.3143       374800       -1.77693
32.3229       374900       -1.7773
32.3315       375000       -1.77766
32.3401       375100       -1.77803
32.3488       375200       -1.7784
32.3574       375300       -1.77876
32.366       375400       -1.77913
32.3746       375500       -1.77949
32.3832       375600       -1.77986
32.3919       375700       -1.78022
32.4005       375800       -1.78059
32.4091       375900       -1.78095
32.4177       376000       -1.78132
32.4264       376100       -1.78168
32.435       376200       -1.78204
32.4436       376300       -1.78241
32.4522       376400       -1.78277
32.4608       376500       -1.78313
32.4695       376600       -1.7835
32.4781       376700       -1.78386
32.4867       376800       -1.78422
32.4953       376900       -1.78459
32.504       377000       -1.78495
32.5126       377100       -1.78531
32.5212       377200       -1.78567
32.5298       377300       -1.78603
32.5384       377400       -1.78639
32.5471       377500       -1.78675
32.5557       377600       -1.78712
32.5643       377700       -1.78748
32.5729       377800       -1.78784
32.5815       377900       -1.7882
32.5902       378000       -1.78856
32.5988       378100       -1.78892
32.6074       378200       -1.78928
32.616       378300       -1.78964
32.6247       378400       -1.78999
32.6333       378500       -1.79035
32.6419       378600       -1.79071
32.6505       378700       -1.79107
32.6591       378800       -1.79143
32.6678       378900       -1.79179
32.6764       379000       -1.79215
32.685       379100       -1.7925
32.6936       379200       -1.79286
32.7023       379300       -1.79322
32.7109       379400       -1.79357
32.7195       379500       -1.79393
32.7281       379600       -1.79429
32.7367       379700       -1.79464
32.7454       379800       -1.795
32.754       379900       -1.79536
32.7626       380000       -1.79571
32.7712       380100       -1.79607
32.7798       380200       -1.79642
32.7885       380300       -1.79678
32.7971       380400       -1.79713
32.8057       380500       -1.79749
32.8143       380600       -1.79784
32.823       380700       -1.7982
32.8316       380800       -1.79855
32.8402       380900       -1.79891
32.8488       381000       -1.79926
32.8574       381100       -1.79961
32.8661       381200       -1.79997
32.8747       381300       -1.80032
32.8833       381400       -1.80067
32.8919       381500       -1.80103
32.9006       381600       -1.80138
32.9092       381700       -1.80173
32.9178       381800       -1.80208
32.9264       381900       -1.80243
32.935       382000       -1.80279
32.9437       382100       -1.80314
32.9523       382200       -1.80349
32.9609       382300       -1.80384
32.9695       382400       -1.80419
32.9781       382500       -1.80454
32.9868       382600       -1.80489
32.9954       382700       -1.80524
33.004       382800       -1.80559
33.0126       382900       -1.80594
33.0213       383000       -1.80629
33.0299       383100       -1.80664
33.0385       383200       -1.80699
33.0471       383300       -1.80734
33.0557       383400       -1.80769
33.0644       383500       -1.80804
33.073       383600       -1.80839
33.0816       383700       -1.80873
33.0902       383800       -1.80908
33.0989       383900       -1.80943
33.1075       384000       -1.80978
33.1161       384100       -1.81012
33.1247       384200       -1.81047
33.1333       384300       -1.81082
33.142       384400       -1.81117
33.1506       384500       -1.81151
33.1592       384600       -1.81186
33.1678       384700       -1.8122
33.1764       384800       -1.81255
33.1851       384900       -1.8129
33.1937       385000       -1.81324
33.2023       385100       -1.81359
33.2109       385200       -1.81393
33.2196       385300       -1.81428
33.2282       385400       -1.81462
33.2368       385500       -1.81497
33.2454       385600       -1.81531
33.254       385700       -1.81566
33.2627       385800       -1.816
33.2713       385900       -1.81634
33.2799       386000       -1.81669
33.2885       386100       -1.81703
33.2972       386200       -1.81737
33.3058       386300       -1.81772
33.3144       386400       -1.81806
33.323       386500       -1.8184
33.3316       386600       -1.81875
33.3403       386700       -1.81909
33.3489       386800       -1.81943
33.3575       386900       -1.81977
33.3661       387000       -1.82011
33.3747       387100       -1.82045
33.3834       387200       -1.8208
33.392       387300       -1.82114
33.4006       387400       -1.82148
33.4092       387500       -1.82182
33.4179       387600       -1.82216
33.4265       387700       -1.8225
33.4351       387800       -1.82284
33.4437       387900       -1.82318
33.4523       388000       -1.82352
33.461       388100       -1.82386
33.4696       388200       -1.8242
33.4782       388300       -1.82454
33.4868       388400       -1.82488
33.4955       388500       -1.82522
33.5041       388600       -1.82555
33.5127       388700       -1.82589
33.5213       388800       -1.82623
33.5299       388900       -1.82657
33.5386       389000       -1.82691
33.5472       389100       -1.82724
33.5558       389200       -1.82758
33.5644       389300       -1.82792
33.573       389400       -1.82826
33.5817       389500       -1.82859
33.5903       389600       -1.82893
33.5989       389700       -1.82926
33.6075       389800       -1.8296
33.6162       389900       -1.82994
33.6248       390000       -1.83027
33.6334       390100       -1.83061
33.642       390200       -1.83094
33.6506       390300       -1.83128
33.6593       390400       -1.83161
33.6679       390500       -1.83195
33.6765       390600       -1.83228
33.6851       390700       -1.83262
33.6938       390800       -1.83295
33.7024       390900       -1.83329
33.711       391000       -1.83362
33.7196       391100       -1.83395
33.7282       391200       -1.83429
33.7369       391300       -1.83462
33.7455       391400       -1.83495
33.7541       391500       -1.83529
33.7627       391600       -1.83562
33.7713       391700       -1.83595
33.78       391800       -1.83629
33.7886       391900       -1.83662
33.7972       392000       -1.83695
33.8058       392100       -1.83728
33.8145       392200       -1.83761
33.8231       392300       -1.83794
33.8317       392400       -1.83828
33.8403       392500       -1.83861
33.8489       392600       -1.83894
33.8576       392700       -1.83927
33.8662       392800       -1.8396
33.8748       392900       -1.83993
33.8834       393000       -1.84026
33.8921       393100       -1.84059
33.9007       393200       -1.84092
33.9093       393300       -1.84125
33.9179       393400       -1.84158
33.9265       393500       -1.84191
33.9352       393600       -1.84224
33.9438       393700       -1.84257
33.9524       393800       -1.84289
33.961       393900       -1.84322
33.9696       394000       -1.84355
33.9783       394100       -1.84388
33.9869       394200       -1.84421
33.9955       394300       -1.84453
34.0041       394400       -1.84486
34.0128       394500       -1.84519
34.0214       394600       -1.84552
34.03       394700       -1.84584
34.0386       394800       -1.84617
34.0472       394900       -1.8465
34.0559       395000       -1.84682
34.0645       395100       -1.84715
34.0731       395200       -1.84748
34.0817       395300       -1.8478
34.0904       395400       -1.84813
34.099       395500       -1.84845
34.1076       395600       -1.84878
34.1162       395700       -1.8491
34.1248       395800       -1.84943
34.1335       395900       -1.84975
34.1421       396000       -1.85008
34.1507       396100       -1.8504
34.1593       396200       -1.85073
34.1679       396300       -1.85105
34.1766       396400       -1.85137
34.1852       396500       -1.8517
34.1938       396600       -1.85202
34.2024       396700       -1.85234
34.2111       396800       -1.85267
34.2197       396900       -1.85299
34.2283       397000       -1.85331
34.2369       397100       -1.85363
34.2455       397200       -1.85396
34.2542       397300       -1.85428
34.2628       397400       -1.8546
34.2714       397500       -1.85492
34.28       397600       -1.85524
34.2887       397700       -1.85557
34.2973       397800       -1.85589
34.3059       397900       -1.85621
34.3145       398000       -1.85653
34.3231       398100       -1.85685
34.3318       398200       -1.85717
34.3404       398300       -1.85749
34.349       398400       -1.85781
34.3576       398500       -1.85813
34.3662       398600       -1.85845
34.3749       398700       -1.85877
34.3835       398800       -1.85909
34.3921       398900       -1.85941
34.4007       399000       -1.85973
34.4094       399100       -1.86005
34.418       399200       -1.86037
34.4266       399300       -1.86069
34.4352       399400       -1.861
34.4438       399500       -1.86132
34.4525       399600       -1.86164
34.4611       399700       -1.86196
34.4697       399800       -1.86228
34.4783       399900       -1.86259
34.487       400000       -1.86291
