; The collision integrals Q_{i,j}^{11} are exponential fit function obtained from 
; Transport properties of high-temperature Jupiter atmosphere components, D. Bruno, C. Catalfamo, M. Capitelli, G. Colonna, O. De Pascale et al., Phys. Plasmas 17, 112315 (2010), doi: 10.1063/1.3495980, Published by the American Institute of Physics
; 
; 
; To obtain these collision integrals, the original data (transport cross section Q^l_{i,j} or elastic collision differential cross section) are obtained from:
;
; 1)Y. Li and C. D. Lin, Phys. Rev. A 60, 2009 1999.
; 2)R. E. Olson and B. Liu, Phys. Rev. A 22, 1389 1980.
; 
; 1 atomic unit of square distance = 2.80e-17 cm^2
; 1eV = 11604K

2.80e-17


;        E             T             Q11
;       (eV)         (K)         (a.u.)

0.0862174       1000       39.0951
0.0948391       1100       37.9343
0.103461       1200       36.8845
0.112083       1300       35.9272
0.120704       1400       35.0485
0.129326       1500       34.2371
0.137948       1600       33.4841
0.14657       1700       32.7821
0.155191       1800       32.1252
0.163813       1900       31.5083
0.172435       2000       30.9271
0.181056       2100       30.3781
0.189678       2200       29.8581
0.1983       2300       29.3645
0.206922       2400       28.8949
0.215543       2500       28.4473
0.224165       2600       28.0198
0.232787       2700       27.611
0.241409       2800       27.2194
0.25003       2900       26.8438
0.258652       3000       26.4829
0.267274       3100       26.1358
0.275896       3200       25.8016
0.284517       3300       25.4795
0.293139       3400       25.1686
0.301761       3500       24.8683
0.310383       3600       24.578
0.319004       3700       24.2972
0.327626       3800       24.0251
0.336248       3900       23.7615
0.34487       4000       23.5058
0.353491       4100       23.2576
0.362113       4200       23.0166
0.370735       4300       22.7824
0.379356       4400       22.5546
0.387978       4500       22.3329
0.3966       4600       22.1171
0.405222       4700       21.907
0.413843       4800       21.7021
0.422465       4900       21.5024
0.431087       5000       21.3075
0.439709       5100       21.1174
0.44833       5200       20.9317
0.456952       5300       20.7503
0.465574       5400       20.5731
0.474196       5500       20.3998
0.482817       5600       20.2303
0.491439       5700       20.0646
0.500061       5800       19.9023
0.508683       5900       19.7435
0.517304       6000       19.588
0.525926       6100       19.4356
0.534548       6200       19.2863
0.543169       6300       19.1399
0.551791       6400       18.9964
0.560413       6500       18.8556
0.569035       6600       18.7176
0.577656       6700       18.582
0.586278       6800       18.449
0.5949       6900       18.3184
0.603522       7000       18.1902
0.612143       7100       18.0642
0.620765       7200       17.9405
0.629387       7300       17.8188
0.638009       7400       17.6993
0.64663       7500       17.5817
0.655252       7600       17.4661
0.663874       7700       17.3524
0.672496       7800       17.2406
0.681117       7900       17.1305
0.689739       8000       17.0222
0.698361       8100       16.9156
0.706983       8200       16.8107
0.715604       8300       16.7074
0.724226       8400       16.6056
0.732848       8500       16.5054
0.741469       8600       16.4066
0.750091       8700       16.3093
0.758713       8800       16.2134
0.767335       8900       16.1189
0.775956       9000       16.0258
0.784578       9100       15.9339
0.7932       9200       15.8434
0.801822       9300       15.7541
0.810443       9400       15.666
0.819065       9500       15.5791
0.827687       9600       15.4934
0.836309       9700       15.4088
0.84493       9800       15.3254
0.853552       9900       15.243
0.862174       10000       15.1617
0.870796       10100       15.0814
0.879417       10200       15.0022
0.888039       10300       14.9239
0.896661       10400       14.8467
0.905282       10500       14.7704
0.913904       10600       14.695
0.922526       10700       14.6205
0.931148       10800       14.547
0.939769       10900       14.4743
0.948391       11000       14.4025
0.957013       11100       14.3315
0.965635       11200       14.2613
0.974256       11300       14.192
0.982878       11400       14.1235
0.9915       11500       14.0557
1.00012       11600       13.9887
1.00874       11700       13.9225
1.01737       11800       13.857
1.02599       11900       13.7922
1.03461       12000       13.7281
1.04323       12100       13.6648
1.05185       12200       13.6021
1.06047       12300       13.54
1.0691       12400       13.4787
1.07772       12500       13.418
1.08634       12600       13.3579
1.09496       12700       13.2984
1.10358       12800       13.2396
1.1122       12900       13.1814
1.12083       13000       13.1237
1.12945       13100       13.0667
1.13807       13200       13.0102
1.14669       13300       12.9543
1.15531       13400       12.8989
1.16393       13500       12.8441
1.17256       13600       12.7898
1.18118       13700       12.736
1.1898       13800       12.6828
1.19842       13900       12.6301
1.20704       14000       12.5778
1.21567       14100       12.5261
1.22429       14200       12.4748
1.23291       14300       12.4241
1.24153       14400       12.3738
1.25015       14500       12.3239
1.25877       14600       12.2746
1.2674       14700       12.2256
1.27602       14800       12.1771
1.28464       14900       12.1291
1.29326       15000       12.0815
1.30188       15100       12.0343
1.3105       15200       11.9875
1.31913       15300       11.9411
1.32775       15400       11.8951
1.33637       15500       11.8496
1.34499       15600       11.8044
1.35361       15700       11.7596
1.36223       15800       11.7152
1.37086       15900       11.6712
1.37948       16000       11.6275
1.3881       16100       11.5842
1.39672       16200       11.5413
1.40534       16300       11.4987
1.41397       16400       11.4565
1.42259       16500       11.4146
1.43121       16600       11.373
1.43983       16700       11.3318
1.44845       16800       11.291
1.45707       16900       11.2504
1.4657       17000       11.2102
1.47432       17100       11.1703
1.48294       17200       11.1307
1.49156       17300       11.0914
1.50018       17400       11.0525
1.5088       17500       11.0138
1.51743       17600       10.9754
1.52605       17700       10.9373
1.53467       17800       10.8996
1.54329       17900       10.8621
1.55191       18000       10.8248
1.56053       18100       10.7879
1.56916       18200       10.7513
1.57778       18300       10.7149
1.5864       18400       10.6788
1.59502       18500       10.6429
1.60364       18600       10.6073
1.61227       18700       10.572
1.62089       18800       10.5369
1.62951       18900       10.5021
1.63813       19000       10.4676
1.64675       19100       10.4333
1.65537       19200       10.3992
1.664       19300       10.3654
1.67262       19400       10.3318
1.68124       19500       10.2984
1.68986       19600       10.2653
1.69848       19700       10.2324
1.7071       19800       10.1998
1.71573       19900       10.1673
1.72435       20000       10.1351
1.73297       20100       10.1031
1.74159       20200       10.0713
1.75021       20300       10.0398
1.75883       20400       10.0084
1.76746       20500       9.97731
1.77608       20600       9.94639
1.7847       20700       9.91567
1.79332       20800       9.88515
1.80194       20900       9.85484
1.81056       21000       9.82473
1.81919       21100       9.79481
1.82781       21200       9.76509
1.83643       21300       9.73556
1.84505       21400       9.70622
1.85367       21500       9.67707
1.8623       21600       9.6481
1.87092       21700       9.61933
1.87954       21800       9.59073
1.88816       21900       9.56232
1.89678       22000       9.53408
1.9054       22100       9.50602
1.91403       22200       9.47814
1.92265       22300       9.45043
1.93127       22400       9.42289
1.93989       22500       9.39552
1.94851       22600       9.36832
1.95713       22700       9.34129
1.96576       22800       9.31442
1.97438       22900       9.28772
1.983       23000       9.26118
1.99162       23100       9.23479
2.00024       23200       9.20857
2.00886       23300       9.1825
2.01749       23400       9.15659
2.02611       23500       9.13083
2.03473       23600       9.10522
2.04335       23700       9.07976
2.05197       23800       9.05446
2.0606       23900       9.0293
2.06922       24000       9.00429
2.07784       24100       8.97942
2.08646       24200       8.9547
2.09508       24300       8.93012
2.1037       24400       8.90567
2.11233       24500       8.88137
2.12095       24600       8.85721
2.12957       24700       8.83319
2.13819       24800       8.8093
2.14681       24900       8.78554
2.15543       25000       8.76192
2.16406       25100       8.73843
2.17268       25200       8.71507
2.1813       25300       8.69184
2.18992       25400       8.66874
2.19854       25500       8.64576
2.20716       25600       8.62292
2.21579       25700       8.60019
2.22441       25800       8.57759
2.23303       25900       8.55512
2.24165       26000       8.53276
2.25027       26100       8.51053
2.2589       26200       8.48841
2.26752       26300       8.46642
2.27614       26400       8.44454
2.28476       26500       8.42278
2.29338       26600       8.40113
2.302       26700       8.3796
2.31063       26800       8.35818
2.31925       26900       8.33687
2.32787       27000       8.31567
2.33649       27100       8.29459
2.34511       27200       8.27361
2.35373       27300       8.25274
2.36236       27400       8.23198
2.37098       27500       8.21133
2.3796       27600       8.19078
2.38822       27700       8.17034
2.39684       27800       8.15
2.40546       27900       8.12977
2.41409       28000       8.10964
2.42271       28100       8.08961
2.43133       28200       8.06967
2.43995       28300       8.04984
2.44857       28400       8.03011
2.4572       28500       8.01048
2.46582       28600       7.99094
2.47444       28700       7.9715
2.48306       28800       7.95216
2.49168       28900       7.93291
2.5003       29000       7.91376
2.50893       29100       7.8947
2.51755       29200       7.87573
2.52617       29300       7.85685
2.53479       29400       7.83807
2.54341       29500       7.81937
2.55203       29600       7.80077
2.56066       29700       7.78225
2.56928       29800       7.76383
2.5779       29900       7.74549
2.58652       30000       7.72724
2.59514       30100       7.70907
2.60376       30200       7.69099
2.61239       30300       7.673
2.62101       30400       7.65509
2.62963       30500       7.63726
2.63825       30600       7.61952
2.64687       30700       7.60186
2.6555       30800       7.58428
2.66412       30900       7.56678
2.67274       31000       7.54937
2.68136       31100       7.53203
2.68998       31200       7.51477
2.6986       31300       7.49759
2.70723       31400       7.48049
2.71585       31500       7.46347
2.72447       31600       7.44653
2.73309       31700       7.42966
2.74171       31800       7.41286
2.75033       31900       7.39615
2.75896       32000       7.3795
2.76758       32100       7.36293
2.7762       32200       7.34644
2.78482       32300       7.33002
2.79344       32400       7.31367
2.80206       32500       7.29739
2.81069       32600       7.28119
2.81931       32700       7.26506
2.82793       32800       7.24899
2.83655       32900       7.233
2.84517       33000       7.21708
2.8538       33100       7.20122
2.86242       33200       7.18544
2.87104       33300       7.16972
2.87966       33400       7.15407
2.88828       33500       7.13849
2.8969       33600       7.12297
2.90553       33700       7.10752
2.91415       33800       7.09214
2.92277       33900       7.07682
2.93139       34000       7.06157
2.94001       34100       7.04638
2.94863       34200       7.03125
2.95726       34300       7.01619
2.96588       34400       7.0012
2.9745       34500       6.98626
2.98312       34600       6.97139
2.99174       34700       6.95658
3.00036       34800       6.94183
3.00899       34900       6.92714
3.01761       35000       6.91251
3.02623       35100       6.89794
3.03485       35200       6.88343
3.04347       35300       6.86898
3.0521       35400       6.85459
3.06072       35500       6.84026
3.06934       35600       6.82599
3.07796       35700       6.81177
3.08658       35800       6.79762
3.0952       35900       6.78352
3.10383       36000       6.76947
3.11245       36100       6.75548
3.12107       36200       6.74155
3.12969       36300       6.72768
3.13831       36400       6.71386
3.14693       36500       6.70009
3.15556       36600       6.68638
3.16418       36700       6.67272
3.1728       36800       6.65912
3.18142       36900       6.64557
3.19004       37000       6.63207
3.19866       37100       6.61863
3.20729       37200       6.60524
3.21591       37300       6.5919
3.22453       37400       6.57861
3.23315       37500       6.56538
3.24177       37600       6.55219
3.2504       37700       6.53906
3.25902       37800       6.52597
3.26764       37900       6.51294
3.27626       38000       6.49996
3.28488       38100       6.48702
3.2935       38200       6.47414
3.30213       38300       6.4613
3.31075       38400       6.44852
3.31937       38500       6.43578
3.32799       38600       6.42309
3.33661       38700       6.41045
3.34523       38800       6.39785
3.35386       38900       6.3853
3.36248       39000       6.3728
3.3711       39100       6.36035
3.37972       39200       6.34794
3.38834       39300       6.33558
3.39696       39400       6.32326
3.40559       39500       6.31099
3.41421       39600       6.29877
3.42283       39700       6.28659
3.43145       39800       6.27445
3.44007       39900       6.26236
3.4487       40000       6.25031
3.45732       40100       6.23831
3.46594       40200       6.22635
3.47456       40300       6.21443
3.48318       40400       6.20256
3.4918       40500       6.19073
3.50043       40600       6.17894
3.50905       40700       6.1672
3.51767       40800       6.1555
3.52629       40900       6.14383
3.53491       41000       6.13221
3.54353       41100       6.12064
3.55216       41200       6.1091
3.56078       41300       6.0976
3.5694       41400       6.08615
3.57802       41500       6.07473
3.58664       41600       6.06336
3.59526       41700       6.05203
3.60389       41800       6.04073
3.61251       41900       6.02948
3.62113       42000       6.01826
3.62975       42100       6.00708
3.63837       42200       5.99595
3.647       42300       5.98485
3.65562       42400       5.97379
3.66424       42500       5.96276
3.67286       42600       5.95178
3.68148       42700       5.94083
3.6901       42800       5.92992
3.69873       42900       5.91905
3.70735       43000       5.90822
3.71597       43100       5.89742
3.72459       43200       5.88666
3.73321       43300       5.87594
3.74183       43400       5.86525
3.75046       43500       5.8546
3.75908       43600       5.84398
3.7677       43700       5.8334
3.77632       43800       5.82286
3.78494       43900       5.81235
3.79356       44000       5.80187
3.80219       44100       5.79144
3.81081       44200       5.78103
3.81943       44300       5.77066
3.82805       44400       5.76033
3.83667       44500       5.75003
3.8453       44600       5.73976
3.85392       44700       5.72953
3.86254       44800       5.71933
3.87116       44900       5.70917
3.87978       45000       5.69903
3.8884       45100       5.68893
3.89703       45200       5.67887
3.90565       45300       5.66884
3.91427       45400       5.65884
3.92289       45500       5.64887
3.93151       45600       5.63893
3.94013       45700       5.62903
3.94876       45800       5.61916
3.95738       45900       5.60932
3.966       46000       5.59951
3.97462       46100       5.58973
3.98324       46200       5.57999
3.99186       46300       5.57028
4.00049       46400       5.56059
4.00911       46500       5.55094
4.01773       46600       5.54132
4.02635       46700       5.53173
4.03497       46800       5.52217
4.0436       46900       5.51264
4.05222       47000       5.50314
4.06084       47100       5.49367
4.06946       47200       5.48423
4.07808       47300       5.47482
4.0867       47400       5.46543
4.09533       47500       5.45608
4.10395       47600       5.44676
4.11257       47700       5.43746
4.12119       47800       5.4282
4.12981       47900       5.41896
4.13843       48000       5.40976
4.14706       48100       5.40058
4.15568       48200       5.39142
4.1643       48300       5.3823
4.17292       48400       5.37321
4.18154       48500       5.36414
4.19016       48600       5.3551
4.19879       48700       5.34609
4.20741       48800       5.3371
4.21603       48900       5.32815
4.22465       49000       5.31922
4.23327       49100       5.31031
4.2419       49200       5.30144
4.25052       49300       5.29259
4.25914       49400       5.28377
4.26776       49500       5.27497
4.27638       49600       5.2662
4.285       49700       5.25746
4.29363       49800       5.24874
4.30225       49900       5.24005
4.31087       50000       5.23139
4.31949       50100       5.22275
4.32811       50200       5.21413
4.33673       50300       5.20555
4.34536       50400       5.19698
4.35398       50500       5.18845
4.3626       50600       5.17993
4.37122       50700       5.17145
4.37984       50800       5.16298
4.38846       50900       5.15455
4.39709       51000       5.14613
4.40571       51100       5.13775
4.41433       51200       5.12938
4.42295       51300       5.12104
4.43157       51400       5.11273
4.4402       51500       5.10444
4.44882       51600       5.09617
4.45744       51700       5.08793
4.46606       51800       5.07971
4.47468       51900       5.07151
4.4833       52000       5.06334
4.49193       52100       5.05519
4.50055       52200       5.04707
4.50917       52300       5.03897
4.51779       52400       5.03089
4.52641       52500       5.02283
4.53503       52600       5.0148
4.54366       52700       5.00679
4.55228       52800       4.9988
4.5609       52900       4.99084
4.56952       53000       4.98289
4.57814       53100       4.97497
4.58676       53200       4.96708
4.59539       53300       4.9592
4.60401       53400       4.95135
4.61263       53500       4.94352
4.62125       53600       4.93571
4.62987       53700       4.92792
4.6385       53800       4.92016
4.64712       53900       4.91241
4.65574       54000       4.90469
4.66436       54100       4.89699
4.67298       54200       4.88931
4.6816       54300       4.88165
4.69023       54400       4.87401
4.69885       54500       4.8664
4.70747       54600       4.8588
4.71609       54700       4.85123
4.72471       54800       4.84367
4.73333       54900       4.83614
4.74196       55000       4.82863
4.75058       55100       4.82113
4.7592       55200       4.81366
4.76782       55300       4.80621
4.77644       55400       4.79878
4.78506       55500       4.79137
4.79369       55600       4.78398
4.80231       55700       4.77661
4.81093       55800       4.76926
4.81955       55900       4.76193
4.82817       56000       4.75461
4.8368       56100       4.74732
4.84542       56200       4.74005
4.85404       56300       4.7328
4.86266       56400       4.72556
4.87128       56500       4.71835
4.8799       56600       4.71115
4.88853       56700       4.70398
4.89715       56800       4.69682
4.90577       56900       4.68968
4.91439       57000       4.68256
4.92301       57100       4.67546
4.93163       57200       4.66838
4.94026       57300       4.66132
4.94888       57400       4.65428
4.9575       57500       4.64725
4.96612       57600       4.64024
4.97474       57700       4.63325
4.98336       57800       4.62628
4.99199       57900       4.61933
5.00061       58000       4.6124
5.00923       58100       4.60548
5.01785       58200       4.59858
5.02647       58300       4.5917
5.03509       58400       4.58484
5.04372       58500       4.57799
5.05234       58600       4.57116
5.06096       58700       4.56435
5.06958       58800       4.55756
5.0782       58900       4.55079
5.08683       59000       4.54403
5.09545       59100       4.53729
5.10407       59200       4.53057
5.11269       59300       4.52386
5.12131       59400       4.51717
5.12993       59500       4.5105
5.13856       59600       4.50384
5.14718       59700       4.49721
5.1558       59800       4.49058
5.16442       59900       4.48398
5.17304       60000       4.47739
5.18166       60100       4.47082
5.19029       60200       4.46427
5.19891       60300       4.45773
5.20753       60400       4.45121
5.21615       60500       4.4447
5.22477       60600       4.43821
5.23339       60700       4.43174
5.24202       60800       4.42528
5.25064       60900       4.41884
5.25926       61000       4.41242
5.26788       61100       4.40601
5.2765       61200       4.39961
5.28513       61300       4.39324
5.29375       61400       4.38688
5.30237       61500       4.38053
5.31099       61600       4.3742
5.31961       61700       4.36789
5.32823       61800       4.36159
5.33686       61900       4.3553
5.34548       62000       4.34904
5.3541       62100       4.34278
5.36272       62200       4.33655
5.37134       62300       4.33032
5.37996       62400       4.32412
5.38859       62500       4.31792
5.39721       62600       4.31175
5.40583       62700       4.30559
5.41445       62800       4.29944
5.42307       62900       4.29331
5.43169       63000       4.28719
5.44032       63100       4.28109
5.44894       63200       4.275
5.45756       63300       4.26893
5.46618       63400       4.26287
5.4748       63500       4.25682
5.48343       63600       4.25079
5.49205       63700       4.24478
5.50067       63800       4.23878
5.50929       63900       4.23279
5.51791       64000       4.22682
5.52653       64100       4.22086
5.53516       64200       4.21492
5.54378       64300       4.20899
5.5524       64400       4.20307
5.56102       64500       4.19717
5.56964       64600       4.19128
5.57826       64700       4.18541
5.58689       64800       4.17955
5.59551       64900       4.1737
5.60413       65000       4.16787
5.61275       65100       4.16205
5.62137       65200       4.15624
5.62999       65300       4.15045
5.63862       65400       4.14467
5.64724       65500       4.13891
5.65586       65600       4.13315
5.66448       65700       4.12742
5.6731       65800       4.12169
5.68173       65900       4.11598
5.69035       66000       4.11028
5.69897       66100       4.1046
5.70759       66200       4.09892
5.71621       66300       4.09326
5.72483       66400       4.08762
5.73346       66500       4.08199
5.74208       66600       4.07637
5.7507       66700       4.07076
5.75932       66800       4.06516
5.76794       66900       4.05958
5.77656       67000       4.05401
5.78519       67100       4.04846
5.79381       67200       4.04291
5.80243       67300       4.03738
5.81105       67400       4.03186
5.81967       67500       4.02636
5.82829       67600       4.02086
5.83692       67700       4.01538
5.84554       67800       4.00992
5.85416       67900       4.00446
5.86278       68000       3.99902
5.8714       68100       3.99358
5.88003       68200       3.98816
5.88865       68300       3.98276
5.89727       68400       3.97736
5.90589       68500       3.97198
5.91451       68600       3.96661
5.92313       68700       3.96125
5.93176       68800       3.9559
5.94038       68900       3.95057
5.949       69000       3.94524
5.95762       69100       3.93993
5.96624       69200       3.93463
5.97486       69300       3.92934
5.98349       69400       3.92407
5.99211       69500       3.9188
6.00073       69600       3.91355
6.00935       69700       3.90831
6.01797       69800       3.90308
6.02659       69900       3.89786
6.03522       70000       3.89265
6.04384       70100       3.88745
6.05246       70200       3.88227
6.06108       70300       3.8771
6.0697       70400       3.87193
6.07833       70500       3.86678
6.08695       70600       3.86164
6.09557       70700       3.85652
6.10419       70800       3.8514
6.11281       70900       3.84629
6.12143       71000       3.8412
6.13006       71100       3.83612
6.13868       71200       3.83104
6.1473       71300       3.82598
6.15592       71400       3.82093
6.16454       71500       3.81589
6.17316       71600       3.81086
6.18179       71700       3.80584
6.19041       71800       3.80083
6.19903       71900       3.79584
6.20765       72000       3.79085
6.21627       72100       3.78587
6.22489       72200       3.78091
6.23352       72300       3.77595
6.24214       72400       3.77101
6.25076       72500       3.76608
6.25938       72600       3.76115
6.268       72700       3.75624
6.27663       72800       3.75134
6.28525       72900       3.74645
6.29387       73000       3.74157
6.30249       73100       3.73669
6.31111       73200       3.73183
6.31973       73300       3.72698
6.32836       73400       3.72214
6.33698       73500       3.71731
6.3456       73600       3.71249
6.35422       73700       3.70768
6.36284       73800       3.70288
6.37146       73900       3.69809
6.38009       74000       3.69331
6.38871       74100       3.68854
6.39733       74200       3.68378
6.40595       74300       3.67903
6.41457       74400       3.67429
6.42319       74500       3.66956
6.43182       74600       3.66484
6.44044       74700       3.66013
6.44906       74800       3.65543
6.45768       74900       3.65073
6.4663       75000       3.64605
6.47493       75100       3.64138
6.48355       75200       3.63672
6.49217       75300       3.63206
6.50079       75400       3.62742
6.50941       75500       3.62279
6.51803       75600       3.61816
6.52666       75700       3.61355
6.53528       75800       3.60894
6.5439       75900       3.60434
6.55252       76000       3.59976
6.56114       76100       3.59518
6.56976       76200       3.59061
6.57839       76300       3.58605
6.58701       76400       3.5815
6.59563       76500       3.57696
6.60425       76600       3.57243
6.61287       76700       3.56791
6.62149       76800       3.56339
6.63012       76900       3.55889
6.63874       77000       3.55439
6.64736       77100       3.54991
6.65598       77200       3.54543
6.6646       77300       3.54096
6.67323       77400       3.5365
6.68185       77500       3.53205
6.69047       77600       3.52761
6.69909       77700       3.52318
6.70771       77800       3.51875
6.71633       77900       3.51434
6.72496       78000       3.50993
6.73358       78100       3.50554
6.7422       78200       3.50115
6.75082       78300       3.49677
6.75944       78400       3.49239
6.76806       78500       3.48803
6.77669       78600       3.48368
6.78531       78700       3.47933
6.79393       78800       3.475
6.80255       78900       3.47067
6.81117       79000       3.46635
6.81979       79100       3.46204
6.82842       79200       3.45773
6.83704       79300       3.45344
6.84566       79400       3.44915
6.85428       79500       3.44487
6.8629       79600       3.4406
6.87153       79700       3.43634
6.88015       79800       3.43209
6.88877       79900       3.42785
6.89739       80000       3.42361
6.90601       80100       3.41938
6.91463       80200       3.41516
6.92326       80300       3.41095
6.93188       80400       3.40675
6.9405       80500       3.40255
6.94912       80600       3.39836
6.95774       80700       3.39418
6.96636       80800       3.39001
6.97499       80900       3.38585
6.98361       81000       3.38169
6.99223       81100       3.37755
7.00085       81200       3.37341
7.00947       81300       3.36928
7.01809       81400       3.36515
7.02672       81500       3.36104
7.03534       81600       3.35693
7.04396       81700       3.35283
7.05258       81800       3.34874
7.0612       81900       3.34465
7.06983       82000       3.34058
7.07845       82100       3.33651
7.08707       82200       3.33245
7.09569       82300       3.32839
7.10431       82400       3.32435
7.11293       82500       3.32031
7.12156       82600       3.31628
7.13018       82700       3.31225
7.1388       82800       3.30824
7.14742       82900       3.30423
7.15604       83000       3.30023
7.16466       83100       3.29624
7.17329       83200       3.29225
7.18191       83300       3.28827
7.19053       83400       3.2843
7.19915       83500       3.28034
7.20777       83600       3.27639
7.21639       83700       3.27244
7.22502       83800       3.2685
7.23364       83900       3.26456
7.24226       84000       3.26064
7.25088       84100       3.25672
7.2595       84200       3.25281
7.26813       84300       3.2489
7.27675       84400       3.245
7.28537       84500       3.24111
7.29399       84600       3.23723
7.30261       84700       3.23336
7.31123       84800       3.22949
7.31986       84900       3.22562
7.32848       85000       3.22177
7.3371       85100       3.21792
7.34572       85200       3.21408
7.35434       85300       3.21025
7.36296       85400       3.20642
7.37159       85500       3.2026
7.38021       85600       3.19879
7.38883       85700       3.19499
7.39745       85800       3.19119
7.40607       85900       3.1874
7.41469       86000       3.18361
7.42332       86100       3.17984
7.43194       86200       3.17606
7.44056       86300       3.1723
7.44918       86400       3.16854
7.4578       86500       3.16479
7.46643       86600       3.16105
7.47505       86700       3.15731
7.48367       86800       3.15358
7.49229       86900       3.14986
7.50091       87000       3.14614
7.50953       87100       3.14243
7.51816       87200       3.13873
7.52678       87300       3.13503
7.5354       87400       3.13134
7.54402       87500       3.12766
7.55264       87600       3.12398
7.56126       87700       3.12031
7.56989       87800       3.11665
7.57851       87900       3.11299
7.58713       88000       3.10934
7.59575       88100       3.1057
7.60437       88200       3.10206
7.61299       88300       3.09843
7.62162       88400       3.0948
7.63024       88500       3.09118
7.63886       88600       3.08757
7.64748       88700       3.08397
7.6561       88800       3.08037
7.66473       88900       3.07677
7.67335       89000       3.07319
7.68197       89100       3.06961
7.69059       89200       3.06603
7.69921       89300       3.06247
7.70783       89400       3.0589
7.71646       89500       3.05535
7.72508       89600       3.0518
7.7337       89700       3.04826
7.74232       89800       3.04472
7.75094       89900       3.04119
7.75956       90000       3.03767
7.76819       90100       3.03415
7.77681       90200       3.03064
7.78543       90300       3.02713
7.79405       90400       3.02363
7.80267       90500       3.02014
7.81129       90600       3.01665
7.81992       90700       3.01317
7.82854       90800       3.00969
7.83716       90900       3.00622
7.84578       91000       3.00276
7.8544       91100       2.9993
7.86303       91200       2.99585
7.87165       91300       2.99241
7.88027       91400       2.98897
7.88889       91500       2.98553
7.89751       91600       2.9821
7.90613       91700       2.97868
7.91476       91800       2.97527
7.92338       91900       2.97186
7.932       92000       2.96845
7.94062       92100       2.96505
7.94924       92200       2.96166
7.95786       92300       2.95827
7.96649       92400       2.95489
7.97511       92500       2.95152
7.98373       92600       2.94815
7.99235       92700       2.94478
8.00097       92800       2.94142
8.00959       92900       2.93807
8.01822       93000       2.93472
8.02684       93100       2.93138
8.03546       93200       2.92805
8.04408       93300       2.92472
8.0527       93400       2.92139
8.06133       93500       2.91807
8.06995       93600       2.91476
8.07857       93700       2.91145
8.08719       93800       2.90815
8.09581       93900       2.90485
8.10443       94000       2.90156
8.11306       94100       2.89828
8.12168       94200       2.895
8.1303       94300       2.89172
8.13892       94400       2.88845
8.14754       94500       2.88519
8.15616       94600       2.88193
8.16479       94700       2.87868
8.17341       94800       2.87543
8.18203       94900       2.87219
8.19065       95000       2.86895
8.19927       95100       2.86572
8.20789       95200       2.8625
8.21652       95300       2.85928
8.22514       95400       2.85606
8.23376       95500       2.85285
8.24238       95600       2.84965
8.251       95700       2.84645
8.25963       95800       2.84325
8.26825       95900       2.84006
8.27687       96000       2.83688
8.28549       96100       2.8337
8.29411       96200       2.83053
8.30273       96300       2.82736
8.31136       96400       2.8242
8.31998       96500       2.82104
8.3286       96600       2.81789
8.33722       96700       2.81474
8.34584       96800       2.8116
8.35446       96900       2.80846
8.36309       97000       2.80533
8.37171       97100       2.80221
8.38033       97200       2.79908
8.38895       97300       2.79597
8.39757       97400       2.79286
8.40619       97500       2.78975
8.41482       97600       2.78665
8.42344       97700       2.78355
8.43206       97800       2.78046
8.44068       97900       2.77737
8.4493       98000       2.77429
8.45792       98100       2.77122
8.46655       98200       2.76815
8.47517       98300       2.76508
8.48379       98400       2.76202
8.49241       98500       2.75896
8.50103       98600       2.75591
8.50966       98700       2.75286
8.51828       98800       2.74982
8.5269       98900       2.74678
8.53552       99000       2.74375
8.54414       99100       2.74072
8.55276       99200       2.7377
8.56139       99300       2.73468
8.57001       99400       2.73167
8.57863       99500       2.72866
8.58725       99600       2.72566
8.59587       99700       2.72266
8.60449       99800       2.71967
8.61312       99900       2.71668
8.62174       100000       2.71369
8.63036       100100       2.71071
8.63898       100200       2.70774
8.6476       100300       2.70477
8.65622       100400       2.7018
8.66485       100500       2.69884
8.67347       100600       2.69589
8.68209       100700       2.69294
8.69071       100800       2.68999
8.69933       100900       2.68705
8.70796       101000       2.68411
8.71658       101100       2.68118
8.7252       101200       2.67825
8.73382       101300       2.67533
8.74244       101400       2.67241
8.75106       101500       2.66949
8.75969       101600       2.66658
8.76831       101700       2.66368
8.77693       101800       2.66078
8.78555       101900       2.65788
8.79417       102000       2.65499
8.80279       102100       2.6521
8.81142       102200       2.64922
8.82004       102300       2.64634
8.82866       102400       2.64346
8.83728       102500       2.64059
8.8459       102600       2.63773
8.85452       102700       2.63487
8.86315       102800       2.63201
8.87177       102900       2.62916
8.88039       103000       2.62631
8.88901       103100       2.62347
8.89763       103200       2.62063
8.90626       103300       2.6178
8.91488       103400       2.61497
8.9235       103500       2.61214
8.93212       103600       2.60932
8.94074       103700       2.6065
8.94936       103800       2.60369
8.95799       103900       2.60088
8.96661       104000       2.59808
8.97523       104100       2.59528
8.98385       104200       2.59248
8.99247       104300       2.58969
9.00109       104400       2.58691
9.00972       104500       2.58412
9.01834       104600       2.58135
9.02696       104700       2.57857
9.03558       104800       2.5758
9.0442       104900       2.57304
9.05282       105000       2.57027
9.06145       105100       2.56752
9.07007       105200       2.56476
9.07869       105300       2.56201
9.08731       105400       2.55927
9.09593       105500       2.55653
9.10456       105600       2.55379
9.11318       105700       2.55106
9.1218       105800       2.54833
9.13042       105900       2.54561
9.13904       106000       2.54289
9.14766       106100       2.54017
9.15629       106200       2.53746
9.16491       106300       2.53475
9.17353       106400       2.53205
9.18215       106500       2.52935
9.19077       106600       2.52665
9.19939       106700       2.52396
9.20802       106800       2.52127
9.21664       106900       2.51859
9.22526       107000       2.51591
9.23388       107100       2.51323
9.2425       107200       2.51056
9.25112       107300       2.50789
9.25975       107400       2.50523
9.26837       107500       2.50257
9.27699       107600       2.49991
9.28561       107700       2.49726
9.29423       107800       2.49461
9.30286       107900       2.49197
9.31148       108000       2.48933
9.3201       108100       2.48669
9.32872       108200       2.48406
9.33734       108300       2.48143
9.34596       108400       2.47881
9.35459       108500       2.47619
9.36321       108600       2.47357
9.37183       108700       2.47096
9.38045       108800       2.46835
9.38907       108900       2.46574
9.39769       109000       2.46314
9.40632       109100       2.46054
9.41494       109200       2.45795
9.42356       109300       2.45536
9.43218       109400       2.45277
9.4408       109500       2.45019
9.44942       109600       2.44761
9.45805       109700       2.44504
9.46667       109800       2.44246
9.47529       109900       2.4399
9.48391       110000       2.43733
9.49253       110100       2.43477
9.50116       110200       2.43222
9.50978       110300       2.42966
9.5184       110400       2.42711
9.52702       110500       2.42457
9.53564       110600       2.42203
9.54426       110700       2.41949
9.55289       110800       2.41696
9.56151       110900       2.41442
9.57013       111000       2.4119
9.57875       111100       2.40937
9.58737       111200       2.40685
9.59599       111300       2.40434
9.60462       111400       2.40183
9.61324       111500       2.39932
9.62186       111600       2.39681
9.63048       111700       2.39431
9.6391       111800       2.39181
9.64772       111900       2.38932
9.65635       112000       2.38683
9.66497       112100       2.38434
9.67359       112200       2.38186
9.68221       112300       2.37937
9.69083       112400       2.3769
9.69946       112500       2.37442
9.70808       112600       2.37196
9.7167       112700       2.36949
9.72532       112800       2.36703
9.73394       112900       2.36457
9.74256       113000       2.36211
9.75119       113100       2.35966
9.75981       113200       2.35721
9.76843       113300       2.35476
9.77705       113400       2.35232
9.78567       113500       2.34988
9.79429       113600       2.34745
9.80292       113700       2.34502
9.81154       113800       2.34259
9.82016       113900       2.34017
9.82878       114000       2.33774
9.8374       114100       2.33533
9.84602       114200       2.33291
9.85465       114300       2.3305
9.86327       114400       2.32809
9.87189       114500       2.32569
9.88051       114600       2.32329
9.88913       114700       2.32089
9.89776       114800       2.3185
9.90638       114900       2.31611
9.915       115000       2.31372
9.92362       115100       2.31133
9.93224       115200       2.30895
9.94086       115300       2.30658
9.94949       115400       2.3042
9.95811       115500       2.30183
9.96673       115600       2.29946
9.97535       115700       2.2971
9.98397       115800       2.29474
9.99259       115900       2.29238
10.0012       116000       2.29002
10.0098       116100       2.28767
10.0185       116200       2.28533
10.0271       116300       2.28298
10.0357       116400       2.28064
10.0443       116500       2.2783
10.0529       116600       2.27597
10.0616       116700       2.27363
10.0702       116800       2.2713
10.0788       116900       2.26898
10.0874       117000       2.26666
10.0961       117100       2.26434
10.1047       117200       2.26202
10.1133       117300       2.25971
10.1219       117400       2.2574
10.1305       117500       2.25509
10.1392       117600       2.25279
10.1478       117700       2.25049
10.1564       117800       2.24819
10.165       117900       2.2459
10.1737       118000       2.24361
10.1823       118100       2.24132
10.1909       118200       2.23904
10.1995       118300       2.23676
10.2081       118400       2.23448
10.2168       118500       2.2322
10.2254       118600       2.22993
10.234       118700       2.22766
10.2426       118800       2.2254
10.2512       118900       2.22313
10.2599       119000       2.22087
10.2685       119100       2.21862
10.2771       119200       2.21636
10.2857       119300       2.21411
10.2944       119400       2.21186
10.303       119500       2.20962
10.3116       119600       2.20738
10.3202       119700       2.20514
10.3288       119800       2.2029
10.3375       119900       2.20067
10.3461       120000       2.19844
10.3547       120100       2.19622
10.3633       120200       2.19399
10.372       120300       2.19177
10.3806       120400       2.18955
10.3892       120500       2.18734
10.3978       120600       2.18513
10.4064       120700       2.18292
10.4151       120800       2.18071
10.4237       120900       2.17851
10.4323       121000       2.17631
10.4409       121100       2.17411
10.4495       121200       2.17192
10.4582       121300       2.16973
10.4668       121400       2.16754
10.4754       121500       2.16536
10.484       121600       2.16317
10.4927       121700       2.16099
10.5013       121800       2.15882
10.5099       121900       2.15664
10.5185       122000       2.15447
10.5271       122100       2.15231
10.5358       122200       2.15014
10.5444       122300       2.14798
10.553       122400       2.14582
10.5616       122500       2.14366
10.5703       122600       2.14151
10.5789       122700       2.13936
10.5875       122800       2.13721
10.5961       122900       2.13507
10.6047       123000       2.13292
10.6134       123100       2.13078
10.622       123200       2.12865
10.6306       123300       2.12651
10.6392       123400       2.12438
10.6478       123500       2.12225
10.6565       123600       2.12013
10.6651       123700       2.118
10.6737       123800       2.11588
10.6823       123900       2.11377
10.691       124000       2.11165
10.6996       124100       2.10954
10.7082       124200       2.10743
10.7168       124300       2.10533
10.7254       124400       2.10322
10.7341       124500       2.10112
10.7427       124600       2.09902
10.7513       124700       2.09693
10.7599       124800       2.09484
10.7686       124900       2.09275
10.7772       125000       2.09066
10.7858       125100       2.08857
10.7944       125200       2.08649
10.803       125300       2.08441
10.8117       125400       2.08234
10.8203       125500       2.08026
10.8289       125600       2.07819
10.8375       125700       2.07612
10.8461       125800       2.07406
10.8548       125900       2.072
10.8634       126000       2.06994
10.872       126100       2.06788
10.8806       126200       2.06582
10.8893       126300       2.06377
10.8979       126400       2.06172
10.9065       126500       2.05967
10.9151       126600       2.05763
10.9237       126700       2.05559
10.9324       126800       2.05355
10.941       126900       2.05151
10.9496       127000       2.04948
10.9582       127100       2.04744
10.9669       127200       2.04542
10.9755       127300       2.04339
10.9841       127400       2.04137
10.9927       127500       2.03934
11.0013       127600       2.03733
11.01       127700       2.03531
11.0186       127800       2.0333
11.0272       127900       2.03129
11.0358       128000       2.02928
11.0444       128100       2.02727
11.0531       128200       2.02527
11.0617       128300       2.02327
11.0703       128400       2.02127
11.0789       128500       2.01927
11.0876       128600       2.01728
11.0962       128700       2.01529
11.1048       128800       2.0133
11.1134       128900       2.01131
11.122       129000       2.00933
11.1307       129100       2.00735
11.1393       129200       2.00537
11.1479       129300       2.0034
11.1565       129400       2.00142
11.1652       129500       1.99945
11.1738       129600       1.99748
11.1824       129700       1.99552
11.191       129800       1.99355
11.1996       129900       1.99159
11.2083       130000       1.98964
11.2169       130100       1.98768
11.2255       130200       1.98573
11.2341       130300       1.98377
11.2427       130400       1.98183
11.2514       130500       1.97988
11.26       130600       1.97794
11.2686       130700       1.97599
11.2772       130800       1.97405
11.2859       130900       1.97212
11.2945       131000       1.97018
11.3031       131100       1.96825
11.3117       131200       1.96632
11.3203       131300       1.9644
11.329       131400       1.96247
11.3376       131500       1.96055
11.3462       131600       1.95863
11.3548       131700       1.95671
11.3635       131800       1.9548
11.3721       131900       1.95288
11.3807       132000       1.95097
11.3893       132100       1.94906
11.3979       132200       1.94716
11.4066       132300       1.94525
11.4152       132400       1.94335
11.4238       132500       1.94146
11.4324       132600       1.93956
11.441       132700       1.93766
11.4497       132800       1.93577
11.4583       132900       1.93388
11.4669       133000       1.932
11.4755       133100       1.93011
11.4842       133200       1.92823
11.4928       133300       1.92635
11.5014       133400       1.92447
11.51       133500       1.92259
11.5186       133600       1.92072
11.5273       133700       1.91885
11.5359       133800       1.91698
11.5445       133900       1.91511
11.5531       134000       1.91325
11.5618       134100       1.91139
11.5704       134200       1.90953
11.579       134300       1.90767
11.5876       134400       1.90582
11.5962       134500       1.90396
11.6049       134600       1.90211
11.6135       134700       1.90026
11.6221       134800       1.89842
11.6307       134900       1.89657
11.6393       135000       1.89473
11.648       135100       1.89289
11.6566       135200       1.89105
11.6652       135300       1.88922
11.6738       135400       1.88739
11.6825       135500       1.88556
11.6911       135600       1.88373
11.6997       135700       1.8819
11.7083       135800       1.88008
11.7169       135900       1.87825
11.7256       136000       1.87644
11.7342       136100       1.87462
11.7428       136200       1.8728
11.7514       136300       1.87099
11.7601       136400       1.86918
11.7687       136500       1.86737
11.7773       136600       1.86556
11.7859       136700       1.86376
11.7945       136800       1.86196
11.8032       136900       1.86015
11.8118       137000       1.85836
11.8204       137100       1.85656
11.829       137200       1.85477
11.8376       137300       1.85298
11.8463       137400       1.85119
11.8549       137500       1.8494
11.8635       137600       1.84761
11.8721       137700       1.84583
11.8808       137800       1.84405
11.8894       137900       1.84227
11.898       138000       1.84049
11.9066       138100       1.83872
11.9152       138200       1.83694
11.9239       138300       1.83517
11.9325       138400       1.83341
11.9411       138500       1.83164
11.9497       138600       1.82987
11.9584       138700       1.82811
11.967       138800       1.82635
11.9756       138900       1.82459
11.9842       139000       1.82284
11.9928       139100       1.82108
12.0015       139200       1.81933
12.0101       139300       1.81758
12.0187       139400       1.81583
12.0273       139500       1.81409
12.0359       139600       1.81235
12.0446       139700       1.8106
12.0532       139800       1.80886
12.0618       139900       1.80713
12.0704       140000       1.80539
12.0791       140100       1.80366
12.0877       140200       1.80193
12.0963       140300       1.8002
12.1049       140400       1.79847
12.1135       140500       1.79674
12.1222       140600       1.79502
12.1308       140700       1.7933
12.1394       140800       1.79158
12.148       140900       1.78986
12.1567       141000       1.78815
12.1653       141100       1.78643
12.1739       141200       1.78472
12.1825       141300       1.78301
12.1911       141400       1.7813
12.1998       141500       1.7796
12.2084       141600       1.77789
12.217       141700       1.77619
12.2256       141800       1.77449
12.2342       141900       1.7728
12.2429       142000       1.7711
12.2515       142100       1.76941
12.2601       142200       1.76771
12.2687       142300       1.76602
12.2774       142400       1.76434
12.286       142500       1.76265
12.2946       142600       1.76097
12.3032       142700       1.75928
12.3118       142800       1.7576
12.3205       142900       1.75593
12.3291       143000       1.75425
12.3377       143100       1.75257
12.3463       143200       1.7509
12.355       143300       1.74923
12.3636       143400       1.74756
12.3722       143500       1.7459
12.3808       143600       1.74423
12.3894       143700       1.74257
12.3981       143800       1.74091
12.4067       143900       1.73925
12.4153       144000       1.73759
12.4239       144100       1.73594
12.4325       144200       1.73428
12.4412       144300       1.73263
12.4498       144400       1.73098
12.4584       144500       1.72933
12.467       144600       1.72769
12.4757       144700       1.72604
12.4843       144800       1.7244
12.4929       144900       1.72276
12.5015       145000       1.72112
12.5101       145100       1.71948
12.5188       145200       1.71785
12.5274       145300       1.71622
12.536       145400       1.71459
12.5446       145500       1.71296
12.5533       145600       1.71133
12.5619       145700       1.7097
12.5705       145800       1.70808
12.5791       145900       1.70646
12.5877       146000       1.70484
12.5964       146100       1.70322
12.605       146200       1.7016
12.6136       146300       1.69999
12.6222       146400       1.69837
12.6308       146500       1.69676
12.6395       146600       1.69515
12.6481       146700       1.69355
12.6567       146800       1.69194
12.6653       146900       1.69034
12.674       147000       1.68873
12.6826       147100       1.68713
12.6912       147200       1.68554
12.6998       147300       1.68394
12.7084       147400       1.68234
12.7171       147500       1.68075
12.7257       147600       1.67916
12.7343       147700       1.67757
12.7429       147800       1.67598
12.7516       147900       1.6744
12.7602       148000       1.67281
12.7688       148100       1.67123
12.7774       148200       1.66965
12.786       148300       1.66807
12.7947       148400       1.66649
12.8033       148500       1.66492
12.8119       148600       1.66334
12.8205       148700       1.66177
12.8291       148800       1.6602
12.8378       148900       1.65863
12.8464       149000       1.65706
12.855       149100       1.6555
12.8636       149200       1.65394
12.8723       149300       1.65237
12.8809       149400       1.65081
12.8895       149500       1.64926
12.8981       149600       1.6477
12.9067       149700       1.64614
12.9154       149800       1.64459
12.924       149900       1.64304
12.9326       150000       1.64149
12.9412       150100       1.63994
12.9499       150200       1.6384
12.9585       150300       1.63685
12.9671       150400       1.63531
12.9757       150500       1.63377
12.9843       150600       1.63223
12.993       150700       1.63069
13.0016       150800       1.62915
13.0102       150900       1.62762
13.0188       151000       1.62609
13.0274       151100       1.62455
13.0361       151200       1.62302
13.0447       151300       1.6215
13.0533       151400       1.61997
13.0619       151500       1.61845
13.0706       151600       1.61692
13.0792       151700       1.6154
13.0878       151800       1.61388
13.0964       151900       1.61236
13.105       152000       1.61085
13.1137       152100       1.60933
13.1223       152200       1.60782
13.1309       152300       1.60631
13.1395       152400       1.6048
13.1482       152500       1.60329
13.1568       152600       1.60179
13.1654       152700       1.60028
13.174       152800       1.59878
13.1826       152900       1.59728
13.1913       153000       1.59578
13.1999       153100       1.59428
13.2085       153200       1.59278
13.2171       153300       1.59129
13.2257       153400       1.58979
13.2344       153500       1.5883
13.243       153600       1.58681
13.2516       153700       1.58532
13.2602       153800       1.58383
13.2689       153900       1.58235
13.2775       154000       1.58086
13.2861       154100       1.57938
13.2947       154200       1.5779
13.3033       154300       1.57642
13.312       154400       1.57494
13.3206       154500       1.57347
13.3292       154600       1.57199
13.3378       154700       1.57052
13.3465       154800       1.56905
13.3551       154900       1.56758
13.3637       155000       1.56611
13.3723       155100       1.56465
13.3809       155200       1.56318
13.3896       155300       1.56172
13.3982       155400       1.56026
13.4068       155500       1.5588
13.4154       155600       1.55734
13.424       155700       1.55588
13.4327       155800       1.55442
13.4413       155900       1.55297
13.4499       156000       1.55152
13.4585       156100       1.55007
13.4672       156200       1.54862
13.4758       156300       1.54717
13.4844       156400       1.54572
13.493       156500       1.54428
13.5016       156600       1.54283
13.5103       156700       1.54139
13.5189       156800       1.53995
13.5275       156900       1.53851
13.5361       157000       1.53708
13.5448       157100       1.53564
13.5534       157200       1.53421
13.562       157300       1.53277
13.5706       157400       1.53134
13.5792       157500       1.52991
13.5879       157600       1.52848
13.5965       157700       1.52706
13.6051       157800       1.52563
13.6137       157900       1.52421
13.6223       158000       1.52278
13.631       158100       1.52136
13.6396       158200       1.51994
13.6482       158300       1.51853
13.6568       158400       1.51711
13.6655       158500       1.5157
13.6741       158600       1.51428
13.6827       158700       1.51287
13.6913       158800       1.51146
13.6999       158900       1.51005
13.7086       159000       1.50864
13.7172       159100       1.50724
13.7258       159200       1.50583
13.7344       159300       1.50443
13.7431       159400       1.50303
13.7517       159500       1.50163
13.7603       159600       1.50023
13.7689       159700       1.49883
13.7775       159800       1.49744
13.7862       159900       1.49604
13.7948       160000       1.49465
13.8034       160100       1.49326
13.812       160200       1.49187
13.8206       160300       1.49048
13.8293       160400       1.48909
13.8379       160500       1.4877
13.8465       160600       1.48632
13.8551       160700       1.48494
13.8638       160800       1.48356
13.8724       160900       1.48218
13.881       161000       1.4808
13.8896       161100       1.47942
13.8982       161200       1.47804
13.9069       161300       1.47667
13.9155       161400       1.4753
13.9241       161500       1.47393
13.9327       161600       1.47256
13.9414       161700       1.47119
13.95       161800       1.46982
13.9586       161900       1.46845
13.9672       162000       1.46709
13.9758       162100       1.46573
13.9845       162200       1.46436
13.9931       162300       1.463
14.0017       162400       1.46164
14.0103       162500       1.46029
14.0189       162600       1.45893
14.0276       162700       1.45758
14.0362       162800       1.45622
14.0448       162900       1.45487
14.0534       163000       1.45352
14.0621       163100       1.45217
14.0707       163200       1.45082
14.0793       163300       1.44948
14.0879       163400       1.44813
14.0965       163500       1.44679
14.1052       163600       1.44544
14.1138       163700       1.4441
14.1224       163800       1.44276
14.131       163900       1.44142
14.1397       164000       1.44009
14.1483       164100       1.43875
14.1569       164200       1.43742
14.1655       164300       1.43608
14.1741       164400       1.43475
14.1828       164500       1.43342
14.1914       164600       1.43209
14.2       164700       1.43077
14.2086       164800       1.42944
14.2172       164900       1.42811
14.2259       165000       1.42679
14.2345       165100       1.42547
14.2431       165200       1.42415
14.2517       165300       1.42283
14.2604       165400       1.42151
14.269       165500       1.42019
14.2776       165600       1.41888
14.2862       165700       1.41756
14.2948       165800       1.41625
14.3035       165900       1.41494
14.3121       166000       1.41363
14.3207       166100       1.41232
14.3293       166200       1.41101
14.338       166300       1.4097
14.3466       166400       1.4084
14.3552       166500       1.4071
14.3638       166600       1.40579
14.3724       166700       1.40449
14.3811       166800       1.40319
14.3897       166900       1.40189
14.3983       167000       1.4006
14.4069       167100       1.3993
14.4155       167200       1.39801
14.4242       167300       1.39671
14.4328       167400       1.39542
14.4414       167500       1.39413
14.45       167600       1.39284
14.4587       167700       1.39155
14.4673       167800       1.39026
14.4759       167900       1.38898
14.4845       168000       1.38769
14.4931       168100       1.38641
14.5018       168200       1.38513
14.5104       168300       1.38385
14.519       168400       1.38257
14.5276       168500       1.38129
14.5363       168600       1.38001
14.5449       168700       1.37874
14.5535       168800       1.37746
14.5621       168900       1.37619
14.5707       169000       1.37492
14.5794       169100       1.37365
14.588       169200       1.37238
14.5966       169300       1.37111
14.6052       169400       1.36984
14.6138       169500       1.36858
14.6225       169600       1.36731
14.6311       169700       1.36605
14.6397       169800       1.36479
14.6483       169900       1.36353
14.657       170000       1.36227
14.6656       170100       1.36101
14.6742       170200       1.35975
14.6828       170300       1.3585
14.6914       170400       1.35724
14.7001       170500       1.35599
14.7087       170600       1.35474
14.7173       170700       1.35349
14.7259       170800       1.35224
14.7346       170900       1.35099
14.7432       171000       1.34974
14.7518       171100       1.3485
14.7604       171200       1.34725
14.769       171300       1.34601
14.7777       171400       1.34476
14.7863       171500       1.34352
14.7949       171600       1.34228
14.8035       171700       1.34105
14.8121       171800       1.33981
14.8208       171900       1.33857
14.8294       172000       1.33734
14.838       172100       1.3361
14.8466       172200       1.33487
14.8553       172300       1.33364
14.8639       172400       1.33241
14.8725       172500       1.33118
14.8811       172600       1.32995
14.8897       172700       1.32872
14.8984       172800       1.3275
14.907       172900       1.32627
14.9156       173000       1.32505
14.9242       173100       1.32383
14.9329       173200       1.32261
14.9415       173300       1.32139
14.9501       173400       1.32017
14.9587       173500       1.31895
14.9673       173600       1.31774
14.976       173700       1.31652
14.9846       173800       1.31531
14.9932       173900       1.3141
15.0018       174000       1.31288
15.0104       174100       1.31167
15.0191       174200       1.31046
15.0277       174300       1.30926
15.0363       174400       1.30805
15.0449       174500       1.30684
15.0536       174600       1.30564
15.0622       174700       1.30444
15.0708       174800       1.30323
15.0794       174900       1.30203
15.088       175000       1.30083
15.0967       175100       1.29963
15.1053       175200       1.29844
15.1139       175300       1.29724
15.1225       175400       1.29604
15.1312       175500       1.29485
15.1398       175600       1.29366
15.1484       175700       1.29247
15.157       175800       1.29127
15.1656       175900       1.29009
15.1743       176000       1.2889
15.1829       176100       1.28771
15.1915       176200       1.28652
15.2001       176300       1.28534
15.2087       176400       1.28415
15.2174       176500       1.28297
15.226       176600       1.28179
15.2346       176700       1.28061
15.2432       176800       1.27943
15.2519       176900       1.27825
15.2605       177000       1.27707
15.2691       177100       1.2759
15.2777       177200       1.27472
15.2863       177300       1.27355
15.295       177400       1.27237
15.3036       177500       1.2712
15.3122       177600       1.27003
15.3208       177700       1.26886
15.3295       177800       1.26769
15.3381       177900       1.26653
15.3467       178000       1.26536
15.3553       178100       1.2642
15.3639       178200       1.26303
15.3726       178300       1.26187
15.3812       178400       1.26071
15.3898       178500       1.25955
15.3984       178600       1.25839
15.407       178700       1.25723
15.4157       178800       1.25607
15.4243       178900       1.25491
15.4329       179000       1.25376
15.4415       179100       1.2526
15.4502       179200       1.25145
15.4588       179300       1.2503
15.4674       179400       1.24915
15.476       179500       1.248
15.4846       179600       1.24685
15.4933       179700       1.2457
15.5019       179800       1.24455
15.5105       179900       1.24341
15.5191       180000       1.24226
15.5278       180100       1.24112
15.5364       180200       1.23998
15.545       180300       1.23884
15.5536       180400       1.2377
15.5622       180500       1.23656
15.5709       180600       1.23542
15.5795       180700       1.23428
15.5881       180800       1.23315
15.5967       180900       1.23201
15.6053       181000       1.23088
15.614       181100       1.22974
15.6226       181200       1.22861
15.6312       181300       1.22748
15.6398       181400       1.22635
15.6485       181500       1.22522
15.6571       181600       1.22409
15.6657       181700       1.22297
15.6743       181800       1.22184
15.6829       181900       1.22072
15.6916       182000       1.21959
15.7002       182100       1.21847
15.7088       182200       1.21735
15.7174       182300       1.21623
15.7261       182400       1.21511
15.7347       182500       1.21399
15.7433       182600       1.21287
15.7519       182700       1.21176
15.7605       182800       1.21064
15.7692       182900       1.20953
15.7778       183000       1.20841
15.7864       183100       1.2073
15.795       183200       1.20619
15.8036       183300       1.20508
15.8123       183400       1.20397
15.8209       183500       1.20286
15.8295       183600       1.20176
15.8381       183700       1.20065
15.8468       183800       1.19954
15.8554       183900       1.19844
15.864       184000       1.19734
15.8726       184100       1.19623
15.8812       184200       1.19513
15.8899       184300       1.19403
15.8985       184400       1.19293
15.9071       184500       1.19184
15.9157       184600       1.19074
15.9244       184700       1.18964
15.933       184800       1.18855
15.9416       184900       1.18745
15.9502       185000       1.18636
15.9588       185100       1.18527
15.9675       185200       1.18418
15.9761       185300       1.18309
15.9847       185400       1.182
15.9933       185500       1.18091
16.0019       185600       1.17982
16.0106       185700       1.17874
16.0192       185800       1.17765
16.0278       185900       1.17657
16.0364       186000       1.17548
16.0451       186100       1.1744
16.0537       186200       1.17332
16.0623       186300       1.17224
16.0709       186400       1.17116
16.0795       186500       1.17008
16.0882       186600       1.169
16.0968       186700       1.16793
16.1054       186800       1.16685
16.114       186900       1.16578
16.1227       187000       1.1647
16.1313       187100       1.16363
16.1399       187200       1.16256
16.1485       187300       1.16149
16.1571       187400       1.16042
16.1658       187500       1.15935
16.1744       187600       1.15828
16.183       187700       1.15722
16.1916       187800       1.15615
16.2002       187900       1.15509
16.2089       188000       1.15402
16.2175       188100       1.15296
16.2261       188200       1.1519
16.2347       188300       1.15084
16.2434       188400       1.14978
16.252       188500       1.14872
16.2606       188600       1.14766
16.2692       188700       1.1466
16.2778       188800       1.14554
16.2865       188900       1.14449
16.2951       189000       1.14343
16.3037       189100       1.14238
16.3123       189200       1.14133
16.321       189300       1.14028
16.3296       189400       1.13923
16.3382       189500       1.13818
16.3468       189600       1.13713
16.3554       189700       1.13608
16.3641       189800       1.13503
16.3727       189900       1.13399
16.3813       190000       1.13294
16.3899       190100       1.1319
16.3985       190200       1.13085
16.4072       190300       1.12981
16.4158       190400       1.12877
16.4244       190500       1.12773
16.433       190600       1.12669
16.4417       190700       1.12565
16.4503       190800       1.12461
16.4589       190900       1.12358
16.4675       191000       1.12254
16.4761       191100       1.12151
16.4848       191200       1.12047
16.4934       191300       1.11944
16.502       191400       1.11841
16.5106       191500       1.11737
16.5193       191600       1.11634
16.5279       191700       1.11531
16.5365       191800       1.11429
16.5451       191900       1.11326
16.5537       192000       1.11223
16.5624       192100       1.11121
16.571       192200       1.11018
16.5796       192300       1.10916
16.5882       192400       1.10813
16.5968       192500       1.10711
16.6055       192600       1.10609
16.6141       192700       1.10507
16.6227       192800       1.10405
16.6313       192900       1.10303
16.64       193000       1.10201
16.6486       193100       1.101
16.6572       193200       1.09998
16.6658       193300       1.09896
16.6744       193400       1.09795
16.6831       193500       1.09694
16.6917       193600       1.09592
16.7003       193700       1.09491
16.7089       193800       1.0939
16.7175       193900       1.09289
16.7262       194000       1.09188
16.7348       194100       1.09087
16.7434       194200       1.08987
16.752       194300       1.08886
16.7607       194400       1.08785
16.7693       194500       1.08685
16.7779       194600       1.08585
16.7865       194700       1.08484
16.7951       194800       1.08384
16.8038       194900       1.08284
16.8124       195000       1.08184
16.821       195100       1.08084
16.8296       195200       1.07984
16.8383       195300       1.07884
16.8469       195400       1.07785
16.8555       195500       1.07685
16.8641       195600       1.07586
16.8727       195700       1.07486
16.8814       195800       1.07387
16.89       195900       1.07288
16.8986       196000       1.07188
16.9072       196100       1.07089
16.9158       196200       1.0699
16.9245       196300       1.06891
16.9331       196400       1.06793
16.9417       196500       1.06694
16.9503       196600       1.06595
16.959       196700       1.06497
16.9676       196800       1.06398
16.9762       196900       1.063
16.9848       197000       1.06201
16.9934       197100       1.06103
17.0021       197200       1.06005
17.0107       197300       1.05907
17.0193       197400       1.05809
17.0279       197500       1.05711
17.0366       197600       1.05613
17.0452       197700       1.05516
17.0538       197800       1.05418
17.0624       197900       1.0532
17.071       198000       1.05223
17.0797       198100       1.05125
17.0883       198200       1.05028
17.0969       198300       1.04931
17.1055       198400       1.04834
17.1141       198500       1.04737
17.1228       198600       1.0464
17.1314       198700       1.04543
17.14       198800       1.04446
17.1486       198900       1.04349
17.1573       199000       1.04253
17.1659       199100       1.04156
17.1745       199200       1.0406
17.1831       199300       1.03963
17.1917       199400       1.03867
17.2004       199500       1.03771
17.209       199600       1.03674
17.2176       199700       1.03578
17.2262       199800       1.03482
17.2349       199900       1.03386
17.2435       200000       1.03291
17.2521       200100       1.03195
17.2607       200200       1.03099
17.2693       200300       1.03004
17.278       200400       1.02908
17.2866       200500       1.02813
17.2952       200600       1.02717
17.3038       200700       1.02622
17.3124       200800       1.02527
17.3211       200900       1.02432
17.3297       201000       1.02337
17.3383       201100       1.02242
17.3469       201200       1.02147
17.3556       201300       1.02052
17.3642       201400       1.01957
17.3728       201500       1.01863
17.3814       201600       1.01768
17.39       201700       1.01674
17.3987       201800       1.01579
17.4073       201900       1.01485
17.4159       202000       1.01391
17.4245       202100       1.01297
17.4332       202200       1.01203
17.4418       202300       1.01109
17.4504       202400       1.01015
17.459       202500       1.00921
17.4676       202600       1.00827
17.4763       202700       1.00733
17.4849       202800       1.0064
17.4935       202900       1.00546
17.5021       203000       1.00453
17.5107       203100       1.0036
17.5194       203200       1.00266
17.528       203300       1.00173
17.5366       203400       1.0008
17.5452       203500       0.999869
17.5539       203600       0.998939
17.5625       203700       0.99801
17.5711       203800       0.997082
17.5797       203900       0.996154
17.5883       204000       0.995228
17.597       204100       0.994302
17.6056       204200       0.993377
17.6142       204300       0.992452
17.6228       204400       0.991529
17.6315       204500       0.990606
17.6401       204600       0.989684
17.6487       204700       0.988763
17.6573       204800       0.987842
17.6659       204900       0.986922
17.6746       205000       0.986003
17.6832       205100       0.985085
17.6918       205200       0.984168
17.7004       205300       0.983251
17.709       205400       0.982335
17.7177       205500       0.98142
17.7263       205600       0.980505
17.7349       205700       0.979592
17.7435       205800       0.978679
17.7522       205900       0.977767
17.7608       206000       0.976855
17.7694       206100       0.975944
17.778       206200       0.975034
17.7866       206300       0.974125
17.7953       206400       0.973217
17.8039       206500       0.972309
17.8125       206600       0.971402
17.8211       206700       0.970496
17.8298       206800       0.969591
17.8384       206900       0.968686
17.847       207000       0.967782
17.8556       207100       0.966879
17.8642       207200       0.965976
17.8729       207300       0.965075
17.8815       207400       0.964174
17.8901       207500       0.963273
17.8987       207600       0.962374
17.9073       207700       0.961475
17.916       207800       0.960577
17.9246       207900       0.95968
17.9332       208000       0.958783
17.9418       208100       0.957887
17.9505       208200       0.956992
17.9591       208300       0.956098
17.9677       208400       0.955204
17.9763       208500       0.954311
17.9849       208600       0.953419
17.9936       208700       0.952528
18.0022       208800       0.951637
18.0108       208900       0.950747
18.0194       209000       0.949858
18.0281       209100       0.948969
18.0367       209200       0.948081
18.0453       209300       0.947194
18.0539       209400       0.946308
18.0625       209500       0.945422
18.0712       209600       0.944537
18.0798       209700       0.943653
18.0884       209800       0.942769
18.097       209900       0.941887
18.1056       210000       0.941004
18.1143       210100       0.940123
18.1229       210200       0.939242
18.1315       210300       0.938363
18.1401       210400       0.937483
18.1488       210500       0.936605
18.1574       210600       0.935727
18.166       210700       0.93485
18.1746       210800       0.933974
18.1832       210900       0.933098
18.1919       211000       0.932223
18.2005       211100       0.931349
18.2091       211200       0.930475
18.2177       211300       0.929602
18.2264       211400       0.92873
18.235       211500       0.927859
18.2436       211600       0.926988
18.2522       211700       0.926118
18.2608       211800       0.925248
18.2695       211900       0.92438
18.2781       212000       0.923512
18.2867       212100       0.922645
18.2953       212200       0.921778
18.3039       212300       0.920912
18.3126       212400       0.920047
18.3212       212500       0.919183
18.3298       212600       0.918319
18.3384       212700       0.917456
18.3471       212800       0.916593
18.3557       212900       0.915732
18.3643       213000       0.914871
18.3729       213100       0.91401
18.3815       213200       0.913151
18.3902       213300       0.912292
18.3988       213400       0.911434
18.4074       213500       0.910576
18.416       213600       0.909719
18.4247       213700       0.908863
18.4333       213800       0.908007
18.4419       213900       0.907153
18.4505       214000       0.906298
18.4591       214100       0.905445
18.4678       214200       0.904592
18.4764       214300       0.90374
18.485       214400       0.902889
18.4936       214500       0.902038
18.5022       214600       0.901188
18.5109       214700       0.900338
18.5195       214800       0.89949
18.5281       214900       0.898642
18.5367       215000       0.897794
18.5454       215100       0.896948
18.554       215200       0.896102
18.5626       215300       0.895256
18.5712       215400       0.894412
18.5798       215500       0.893568
18.5885       215600       0.892724
18.5971       215700       0.891881
18.6057       215800       0.891039
18.6143       215900       0.890198
18.623       216000       0.889357
18.6316       216100       0.888517
18.6402       216200       0.887678
18.6488       216300       0.886839
18.6574       216400       0.886001
18.6661       216500       0.885164
18.6747       216600       0.884327
18.6833       216700       0.883491
18.6919       216800       0.882656
18.7005       216900       0.881821
18.7092       217000       0.880987
18.7178       217100       0.880154
18.7264       217200       0.879321
18.735       217300       0.878489
18.7437       217400       0.877657
18.7523       217500       0.876826
18.7609       217600       0.875996
18.7695       217700       0.875167
18.7781       217800       0.874338
18.7868       217900       0.87351
18.7954       218000       0.872682
18.804       218100       0.871855
18.8126       218200       0.871029
18.8213       218300       0.870204
18.8299       218400       0.869379
18.8385       218500       0.868554
18.8471       218600       0.867731
18.8557       218700       0.866908
18.8644       218800       0.866085
18.873       218900       0.865263
18.8816       219000       0.864442
18.8902       219100       0.863622
18.8988       219200       0.862802
18.9075       219300       0.861983
18.9161       219400       0.861164
18.9247       219500       0.860347
18.9333       219600       0.859529
18.942       219700       0.858713
18.9506       219800       0.857897
18.9592       219900       0.857081
18.9678       220000       0.856267
18.9764       220100       0.855453
18.9851       220200       0.854639
18.9937       220300       0.853826
19.0023       220400       0.853014
19.0109       220500       0.852203
19.0196       220600       0.851392
19.0282       220700       0.850581
19.0368       220800       0.849772
19.0454       220900       0.848963
19.054       221000       0.848154
19.0627       221100       0.847346
19.0713       221200       0.846539
19.0799       221300       0.845733
19.0885       221400       0.844927
19.0971       221500       0.844122
19.1058       221600       0.843317
19.1144       221700       0.842513
19.123       221800       0.841709
19.1316       221900       0.840907
19.1403       222000       0.840105
19.1489       222100       0.839303
19.1575       222200       0.838502
19.1661       222300       0.837702
19.1747       222400       0.836902
19.1834       222500       0.836103
19.192       222600       0.835304
19.2006       222700       0.834507
19.2092       222800       0.833709
19.2179       222900       0.832913
19.2265       223000       0.832117
19.2351       223100       0.831321
19.2437       223200       0.830526
19.2523       223300       0.829732
19.261       223400       0.828939
19.2696       223500       0.828146
19.2782       223600       0.827353
19.2868       223700       0.826562
19.2954       223800       0.82577
19.3041       223900       0.82498
19.3127       224000       0.82419
19.3213       224100       0.823401
19.3299       224200       0.822612
19.3386       224300       0.821824
19.3472       224400       0.821036
19.3558       224500       0.820249
19.3644       224600       0.819463
19.373       224700       0.818677
19.3817       224800       0.817892
19.3903       224900       0.817108
19.3989       225000       0.816324
19.4075       225100       0.81554
19.4162       225200       0.814758
19.4248       225300       0.813976
19.4334       225400       0.813194
19.442       225500       0.812413
19.4506       225600       0.811633
19.4593       225700       0.810853
19.4679       225800       0.810074
19.4765       225900       0.809295
19.4851       226000       0.808517
19.4937       226100       0.80774
19.5024       226200       0.806963
19.511       226300       0.806187
19.5196       226400       0.805411
19.5282       226500       0.804636
19.5369       226600       0.803862
19.5455       226700       0.803088
19.5541       226800       0.802315
19.5627       226900       0.801542
19.5713       227000       0.80077
19.58       227100       0.799998
19.5886       227200       0.799227
19.5972       227300       0.798457
19.6058       227400       0.797687
19.6145       227500       0.796918
19.6231       227600       0.796149
19.6317       227700       0.795381
19.6403       227800       0.794614
19.6489       227900       0.793847
19.6576       228000       0.793081
19.6662       228100       0.792315
19.6748       228200       0.79155
19.6834       228300       0.790785
19.692       228400       0.790021
19.7007       228500       0.789258
19.7093       228600       0.788495
19.7179       228700       0.787733
19.7265       228800       0.786971
19.7352       228900       0.78621
19.7438       229000       0.78545
19.7524       229100       0.78469
19.761       229200       0.78393
19.7696       229300       0.783171
19.7783       229400       0.782413
19.7869       229500       0.781655
19.7955       229600       0.780898
19.8041       229700       0.780142
19.8128       229800       0.779386
19.8214       229900       0.77863
19.83       230000       0.777875
19.8386       230100       0.777121
19.8472       230200       0.776367
19.8559       230300       0.775614
19.8645       230400       0.774861
19.8731       230500       0.774109
19.8817       230600       0.773358
19.8903       230700       0.772607
19.899       230800       0.771857
19.9076       230900       0.771107
19.9162       231000       0.770358
19.9248       231100       0.769609
19.9335       231200       0.768861
19.9421       231300       0.768113
19.9507       231400       0.767366
19.9593       231500       0.76662
19.9679       231600       0.765874
19.9766       231700       0.765128
19.9852       231800       0.764384
19.9938       231900       0.763639
20.0024       232000       0.762896
20.0111       232100       0.762152
20.0197       232200       0.76141
20.0283       232300       0.760668
20.0369       232400       0.759926
20.0455       232500       0.759185
20.0542       232600       0.758445
20.0628       232700       0.757705
20.0714       232800       0.756966
20.08       232900       0.756227
20.0886       233000       0.755489
20.0973       233100       0.754751
20.1059       233200       0.754014
20.1145       233300       0.753277
20.1231       233400       0.752541
20.1318       233500       0.751806
20.1404       233600       0.751071
20.149       233700       0.750336
20.1576       233800       0.749603
20.1662       233900       0.748869
20.1749       234000       0.748136
20.1835       234100       0.747404
20.1921       234200       0.746673
20.2007       234300       0.745941
20.2094       234400       0.745211
20.218       234500       0.744481
20.2266       234600       0.743751
20.2352       234700       0.743022
20.2438       234800       0.742294
20.2525       234900       0.741566
20.2611       235000       0.740838
20.2697       235100       0.740111
20.2783       235200       0.739385
20.2869       235300       0.738659
20.2956       235400       0.737934
20.3042       235500       0.737209
20.3128       235600       0.736485
20.3214       235700       0.735761
20.3301       235800       0.735038
20.3387       235900       0.734315
20.3473       236000       0.733593
20.3559       236100       0.732872
20.3645       236200       0.73215
20.3732       236300       0.73143
20.3818       236400       0.73071
20.3904       236500       0.72999
20.399       236600       0.729272
20.4077       236700       0.728553
20.4163       236800       0.727835
20.4249       236900       0.727118
20.4335       237000       0.726401
20.4421       237100       0.725685
20.4508       237200       0.724969
20.4594       237300       0.724253
20.468       237400       0.723539
20.4766       237500       0.722824
20.4852       237600       0.722111
20.4939       237700       0.721397
20.5025       237800       0.720685
20.5111       237900       0.719973
20.5197       238000       0.719261
20.5284       238100       0.71855
20.537       238200       0.717839
20.5456       238300       0.717129
20.5542       238400       0.716419
20.5628       238500       0.71571
20.5715       238600       0.715002
20.5801       238700       0.714294
20.5887       238800       0.713586
20.5973       238900       0.712879
20.606       239000       0.712172
20.6146       239100       0.711466
20.6232       239200       0.710761
20.6318       239300       0.710056
20.6404       239400       0.709351
20.6491       239500       0.708647
20.6577       239600       0.707944
20.6663       239700       0.707241
20.6749       239800       0.706538
20.6835       239900       0.705836
20.6922       240000       0.705135
20.7008       240100       0.704434
20.7094       240200       0.703734
20.718       240300       0.703034
20.7267       240400       0.702334
20.7353       240500       0.701635
20.7439       240600       0.700937
20.7525       240700       0.700239
20.7611       240800       0.699541
20.7698       240900       0.698844
20.7784       241000       0.698148
20.787       241100       0.697452
20.7956       241200       0.696757
20.8043       241300       0.696062
20.8129       241400       0.695367
20.8215       241500       0.694673
20.8301       241600       0.69398
20.8387       241700       0.693287
20.8474       241800       0.692594
20.856       241900       0.691903
20.8646       242000       0.691211
20.8732       242100       0.69052
20.8818       242200       0.68983
20.8905       242300       0.68914
20.8991       242400       0.68845
20.9077       242500       0.687761
20.9163       242600       0.687073
20.925       242700       0.686385
20.9336       242800       0.685697
20.9422       242900       0.68501
20.9508       243000       0.684323
20.9594       243100       0.683637
20.9681       243200       0.682952
20.9767       243300       0.682267
20.9853       243400       0.681582
20.9939       243500       0.680898
21.0026       243600       0.680214
21.0112       243700       0.679531
21.0198       243800       0.678849
21.0284       243900       0.678166
21.037       244000       0.677485
21.0457       244100       0.676804
21.0543       244200       0.676123
21.0629       244300       0.675443
21.0715       244400       0.674763
21.0801       244500       0.674084
21.0888       244600       0.673405
21.0974       244700       0.672726
21.106       244800       0.672049
21.1146       244900       0.671371
21.1233       245000       0.670694
21.1319       245100       0.670018
21.1405       245200       0.669342
21.1491       245300       0.668667
21.1577       245400       0.667992
21.1664       245500       0.667317
21.175       245600       0.666643
21.1836       245700       0.66597
21.1922       245800       0.665296
21.2009       245900       0.664624
21.2095       246000       0.663952
21.2181       246100       0.66328
21.2267       246200       0.662609
21.2353       246300       0.661938
21.244       246400       0.661268
21.2526       246500       0.660598
21.2612       246600       0.659929
21.2698       246700       0.65926
21.2784       246800       0.658592
21.2871       246900       0.657924
21.2957       247000       0.657257
21.3043       247100       0.65659
21.3129       247200       0.655923
21.3216       247300       0.655257
21.3302       247400       0.654592
21.3388       247500       0.653926
21.3474       247600       0.653262
21.356       247700       0.652598
21.3647       247800       0.651934
21.3733       247900       0.651271
21.3819       248000       0.650608
21.3905       248100       0.649946
21.3992       248200       0.649284
21.4078       248300       0.648623
21.4164       248400       0.647962
21.425       248500       0.647301
21.4336       248600       0.646641
21.4423       248700       0.645982
21.4509       248800       0.645323
21.4595       248900       0.644664
21.4681       249000       0.644006
21.4767       249100       0.643348
21.4854       249200       0.642691
21.494       249300       0.642034
21.5026       249400       0.641378
21.5112       249500       0.640722
21.5199       249600       0.640067
21.5285       249700       0.639412
21.5371       249800       0.638757
21.5457       249900       0.638103
21.5543       250000       0.63745
21.563       250100       0.636797
21.5716       250200       0.636144
21.5802       250300       0.635492
21.5888       250400       0.63484
21.5975       250500       0.634189
21.6061       250600       0.633538
21.6147       250700       0.632887
21.6233       250800       0.632237
21.6319       250900       0.631588
21.6406       251000       0.630939
21.6492       251100       0.63029
21.6578       251200       0.629642
21.6664       251300       0.628994
21.675       251400       0.628347
21.6837       251500       0.6277
21.6923       251600       0.627054
21.7009       251700       0.626408
21.7095       251800       0.625763
21.7182       251900       0.625117
21.7268       252000       0.624473
21.7354       252100       0.623829
21.744       252200       0.623185
21.7526       252300       0.622542
21.7613       252400       0.621899
21.7699       252500       0.621257
21.7785       252600       0.620615
21.7871       252700       0.619973
21.7958       252800       0.619332
21.8044       252900       0.618691
21.813       253000       0.618051
21.8216       253100       0.617412
21.8302       253200       0.616772
21.8389       253300       0.616133
21.8475       253400       0.615495
21.8561       253500       0.614857
21.8647       253600       0.614219
21.8733       253700       0.613582
21.882       253800       0.612946
21.8906       253900       0.612309
21.8992       254000       0.611674
21.9078       254100       0.611038
21.9165       254200       0.610403
21.9251       254300       0.609769
21.9337       254400       0.609135
21.9423       254500       0.608501
21.9509       254600       0.607868
21.9596       254700       0.607235
21.9682       254800       0.606603
21.9768       254900       0.605971
21.9854       255000       0.60534
21.9941       255100       0.604709
22.0027       255200       0.604078
22.0113       255300       0.603448
22.0199       255400       0.602818
22.0285       255500       0.602189
22.0372       255600       0.60156
22.0458       255700       0.600931
22.0544       255800       0.600303
22.063       255900       0.599676
22.0716       256000       0.599049
22.0803       256100       0.598422
22.0889       256200       0.597795
22.0975       256300       0.59717
22.1061       256400       0.596544
22.1148       256500       0.595919
22.1234       256600       0.595294
22.132       256700       0.59467
22.1406       256800       0.594046
22.1492       256900       0.593423
22.1579       257000       0.5928
22.1665       257100       0.592178
22.1751       257200       0.591555
22.1837       257300       0.590934
22.1924       257400       0.590313
22.201       257500       0.589692
22.2096       257600       0.589071
22.2182       257700       0.588451
22.2268       257800       0.587832
22.2355       257900       0.587213
22.2441       258000       0.586594
22.2527       258100       0.585976
22.2613       258200       0.585358
22.2699       258300       0.58474
22.2786       258400       0.584123
22.2872       258500       0.583506
22.2958       258600       0.58289
22.3044       258700       0.582274
22.3131       258800       0.581659
22.3217       258900       0.581044
22.3303       259000       0.580429
22.3389       259100       0.579815
22.3475       259200       0.579201
22.3562       259300       0.578588
22.3648       259400       0.577975
22.3734       259500       0.577363
22.382       259600       0.576751
22.3907       259700       0.576139
22.3993       259800       0.575528
22.4079       259900       0.574917
22.4165       260000       0.574306
22.4251       260100       0.573696
22.4338       260200       0.573087
22.4424       260300       0.572477
22.451       260400       0.571868
22.4596       260500       0.57126
22.4682       260600       0.570652
22.4769       260700       0.570044
22.4855       260800       0.569437
22.4941       260900       0.56883
22.5027       261000       0.568224
22.5114       261100       0.567618
22.52       261200       0.567012
22.5286       261300       0.566407
22.5372       261400       0.565802
22.5458       261500       0.565198
22.5545       261600       0.564594
22.5631       261700       0.563991
22.5717       261800       0.563387
22.5803       261900       0.562785
22.589       262000       0.562182
22.5976       262100       0.56158
22.6062       262200       0.560979
22.6148       262300       0.560378
22.6234       262400       0.559777
22.6321       262500       0.559177
22.6407       262600       0.558577
22.6493       262700       0.557977
22.6579       262800       0.557378
22.6665       262900       0.556779
22.6752       263000       0.556181
22.6838       263100       0.555583
22.6924       263200       0.554985
22.701       263300       0.554388
22.7097       263400       0.553791
22.7183       263500       0.553195
22.7269       263600       0.552599
22.7355       263700       0.552003
22.7441       263800       0.551408
22.7528       263900       0.550813
22.7614       264000       0.550219
22.77       264100       0.549625
22.7786       264200       0.549031
22.7873       264300       0.548438
22.7959       264400       0.547845
22.8045       264500       0.547253
22.8131       264600       0.546661
22.8217       264700       0.546069
22.8304       264800       0.545478
22.839       264900       0.544887
22.8476       265000       0.544296
22.8562       265100       0.543706
22.8648       265200       0.543116
22.8735       265300       0.542527
22.8821       265400       0.541938
22.8907       265500       0.541349
22.8993       265600       0.540761
22.908       265700       0.540174
22.9166       265800       0.539586
22.9252       265900       0.538999
22.9338       266000       0.538412
22.9424       266100       0.537826
22.9511       266200       0.53724
22.9597       266300       0.536655
22.9683       266400       0.53607
22.9769       266500       0.535485
22.9856       266600       0.534901
22.9942       266700       0.534317
23.0028       266800       0.533733
23.0114       266900       0.53315
23.02       267000       0.532567
23.0287       267100       0.531985
23.0373       267200       0.531403
23.0459       267300       0.530821
23.0545       267400       0.53024
23.0631       267500       0.529659
23.0718       267600       0.529079
23.0804       267700       0.528498
23.089       267800       0.527919
23.0976       267900       0.527339
23.1063       268000       0.52676
23.1149       268100       0.526182
23.1235       268200       0.525603
23.1321       268300       0.525026
23.1407       268400       0.524448
23.1494       268500       0.523871
23.158       268600       0.523294
23.1666       268700       0.522718
23.1752       268800       0.522142
23.1839       268900       0.521566
23.1925       269000       0.520991
23.2011       269100       0.520416
23.2097       269200       0.519842
23.2183       269300       0.519268
23.227       269400       0.518694
23.2356       269500       0.518121
23.2442       269600       0.517548
23.2528       269700       0.516975
23.2614       269800       0.516403
23.2701       269900       0.515831
23.2787       270000       0.515259
23.2873       270100       0.514688
23.2959       270200       0.514117
23.3046       270300       0.513547
23.3132       270400       0.512977
23.3218       270500       0.512407
23.3304       270600       0.511838
23.339       270700       0.511269
23.3477       270800       0.510701
23.3563       270900       0.510132
23.3649       271000       0.509565
23.3735       271100       0.508997
23.3822       271200       0.50843
23.3908       271300       0.507863
23.3994       271400       0.507297
23.408       271500       0.506731
23.4166       271600       0.506165
23.4253       271700       0.5056
23.4339       271800       0.505035
23.4425       271900       0.504471
23.4511       272000       0.503906
23.4597       272100       0.503343
23.4684       272200       0.502779
23.477       272300       0.502216
23.4856       272400       0.501653
23.4942       272500       0.501091
23.5029       272600       0.500529
23.5115       272700       0.499967
23.5201       272800       0.499406
23.5287       272900       0.498845
23.5373       273000       0.498285
23.546       273100       0.497725
23.5546       273200       0.497165
23.5632       273300       0.496605
23.5718       273400       0.496046
23.5805       273500       0.495487
23.5891       273600       0.494929
23.5977       273700       0.494371
23.6063       273800       0.493813
23.6149       273900       0.493256
23.6236       274000       0.492699
23.6322       274100       0.492142
23.6408       274200       0.491586
23.6494       274300       0.49103
23.658       274400       0.490475
23.6667       274500       0.489919
23.6753       274600       0.489365
23.6839       274700       0.48881
23.6925       274800       0.488256
23.7012       274900       0.487702
23.7098       275000       0.487149
23.7184       275100       0.486596
23.727       275200       0.486043
23.7356       275300       0.485491
23.7443       275400       0.484939
23.7529       275500       0.484387
23.7615       275600       0.483836
23.7701       275700       0.483285
23.7788       275800       0.482734
23.7874       275900       0.482184
23.796       276000       0.481634
23.8046       276100       0.481084
23.8132       276200       0.480535
23.8219       276300       0.479986
23.8305       276400       0.479438
23.8391       276500       0.47889
23.8477       276600       0.478342
23.8563       276700       0.477794
23.865       276800       0.477247
23.8736       276900       0.476701
23.8822       277000       0.476154
23.8908       277100       0.475608
23.8995       277200       0.475062
23.9081       277300       0.474517
23.9167       277400       0.473972
23.9253       277500       0.473427
23.9339       277600       0.472883
23.9426       277700       0.472339
23.9512       277800       0.471795
23.9598       277900       0.471252
23.9684       278000       0.470709
23.9771       278100       0.470166
23.9857       278200       0.469624
23.9943       278300       0.469082
24.0029       278400       0.46854
24.0115       278500       0.467999
24.0202       278600       0.467458
24.0288       278700       0.466918
24.0374       278800       0.466377
24.046       278900       0.465838
24.0546       279000       0.465298
24.0633       279100       0.464759
24.0719       279200       0.46422
24.0805       279300       0.463681
24.0891       279400       0.463143
24.0978       279500       0.462605
24.1064       279600       0.462068
24.115       279700       0.461531
24.1236       279800       0.460994
24.1322       279900       0.460457
24.1409       280000       0.459921
24.1495       280100       0.459385
24.1581       280200       0.45885
24.1667       280300       0.458314
24.1754       280400       0.45778
24.184       280500       0.457245
24.1926       280600       0.456711
24.2012       280700       0.456177
24.2098       280800       0.455644
24.2185       280900       0.455111
24.2271       281000       0.454578
24.2357       281100       0.454045
24.2443       281200       0.453513
24.2529       281300       0.452981
24.2616       281400       0.45245
24.2702       281500       0.451919
24.2788       281600       0.451388
24.2874       281700       0.450857
24.2961       281800       0.450327
24.3047       281900       0.449797
24.3133       282000       0.449268
24.3219       282100       0.448739
24.3305       282200       0.44821
24.3392       282300       0.447681
24.3478       282400       0.447153
24.3564       282500       0.446625
24.365       282600       0.446098
24.3737       282700       0.44557
24.3823       282800       0.445044
24.3909       282900       0.444517
24.3995       283000       0.443991
24.4081       283100       0.443465
24.4168       283200       0.442939
24.4254       283300       0.442414
24.434       283400       0.441889
24.4426       283500       0.441365
24.4512       283600       0.44084
24.4599       283700       0.440316
24.4685       283800       0.439793
24.4771       283900       0.43927
24.4857       284000       0.438747
24.4944       284100       0.438224
24.503       284200       0.437702
24.5116       284300       0.43718
24.5202       284400       0.436658
24.5288       284500       0.436137
24.5375       284600       0.435616
24.5461       284700       0.435095
24.5547       284800       0.434575
24.5633       284900       0.434055
24.572       285000       0.433535
24.5806       285100       0.433015
24.5892       285200       0.432496
24.5978       285300       0.431978
24.6064       285400       0.431459
24.6151       285500       0.430941
24.6237       285600       0.430423
24.6323       285700       0.429906
24.6409       285800       0.429388
24.6495       285900       0.428872
24.6582       286000       0.428355
24.6668       286100       0.427839
24.6754       286200       0.427323
24.684       286300       0.426807
24.6927       286400       0.426292
24.7013       286500       0.425777
24.7099       286600       0.425263
24.7185       286700       0.424748
24.7271       286800       0.424234
24.7358       286900       0.423721
24.7444       287000       0.423207
24.753       287100       0.422694
24.7616       287200       0.422181
24.7703       287300       0.421669
24.7789       287400       0.421157
24.7875       287500       0.420645
24.7961       287600       0.420134
24.8047       287700       0.419623
24.8134       287800       0.419112
24.822       287900       0.418601
24.8306       288000       0.418091
24.8392       288100       0.417581
24.8478       288200       0.417071
24.8565       288300       0.416562
24.8651       288400       0.416053
24.8737       288500       0.415545
24.8823       288600       0.415036
24.891       288700       0.414528
24.8996       288800       0.41402
24.9082       288900       0.413513
24.9168       289000       0.413006
24.9254       289100       0.412499
24.9341       289200       0.411993
24.9427       289300       0.411486
24.9513       289400       0.410981
24.9599       289500       0.410475
24.9686       289600       0.40997
24.9772       289700       0.409465
24.9858       289800       0.40896
24.9944       289900       0.408456
25.003       290000       0.407952
25.0117       290100       0.407448
25.0203       290200       0.406945
25.0289       290300       0.406441
25.0375       290400       0.405939
25.0461       290500       0.405436
25.0548       290600       0.404934
25.0634       290700       0.404432
25.072       290800       0.403931
25.0806       290900       0.403429
25.0893       291000       0.402928
25.0979       291100       0.402428
25.1065       291200       0.401927
25.1151       291300       0.401427
25.1237       291400       0.400927
25.1324       291500       0.400428
25.141       291600       0.399929
25.1496       291700       0.39943
25.1582       291800       0.398931
25.1669       291900       0.398433
25.1755       292000       0.397935
25.1841       292100       0.397438
25.1927       292200       0.39694
25.2013       292300       0.396443
25.21       292400       0.395946
25.2186       292500       0.39545
25.2272       292600       0.394954
25.2358       292700       0.394458
25.2444       292800       0.393962
25.2531       292900       0.393467
25.2617       293000       0.392972
25.2703       293100       0.392478
25.2789       293200       0.391983
25.2876       293300       0.391489
25.2962       293400       0.390995
25.3048       293500       0.390502
25.3134       293600       0.390009
25.322       293700       0.389516
25.3307       293800       0.389023
25.3393       293900       0.388531
25.3479       294000       0.388039
25.3565       294100       0.387547
25.3652       294200       0.387056
25.3738       294300       0.386565
25.3824       294400       0.386074
25.391       294500       0.385584
25.3996       294600       0.385094
25.4083       294700       0.384604
25.4169       294800       0.384114
25.4255       294900       0.383625
25.4341       295000       0.383136
25.4427       295100       0.382647
25.4514       295200       0.382158
25.46       295300       0.38167
25.4686       295400       0.381182
25.4772       295500       0.380695
25.4859       295600       0.380208
25.4945       295700       0.379721
25.5031       295800       0.379234
25.5117       295900       0.378748
25.5203       296000       0.378261
25.529       296100       0.377776
25.5376       296200       0.37729
25.5462       296300       0.376805
25.5548       296400       0.37632
25.5635       296500       0.375835
25.5721       296600       0.375351
25.5807       296700       0.374867
25.5893       296800       0.374383
25.5979       296900       0.3739
25.6066       297000       0.373416
25.6152       297100       0.372933
25.6238       297200       0.372451
25.6324       297300       0.371968
25.641       297400       0.371486
25.6497       297500       0.371005
25.6583       297600       0.370523
25.6669       297700       0.370042
25.6755       297800       0.369561
25.6842       297900       0.36908
25.6928       298000       0.3686
25.7014       298100       0.36812
25.71       298200       0.36764
25.7186       298300       0.367161
25.7273       298400       0.366681
25.7359       298500       0.366203
25.7445       298600       0.365724
25.7531       298700       0.365246
25.7618       298800       0.364767
25.7704       298900       0.36429
25.779       299000       0.363812
25.7876       299100       0.363335
25.7962       299200       0.362858
25.8049       299300       0.362381
25.8135       299400       0.361905
25.8221       299500       0.361429
25.8307       299600       0.360953
25.8393       299700       0.360478
25.848       299800       0.360002
25.8566       299900       0.359527
25.8652       300000       0.359053
25.8738       300100       0.358578
25.8825       300200       0.358104
25.8911       300300       0.35763
25.8997       300400       0.357157
25.9083       300500       0.356683
25.9169       300600       0.35621
25.9256       300700       0.355738
25.9342       300800       0.355265
25.9428       300900       0.354793
25.9514       301000       0.354321
25.9601       301100       0.35385
25.9687       301200       0.353378
25.9773       301300       0.352907
25.9859       301400       0.352436
25.9945       301500       0.351966
26.0032       301600       0.351496
26.0118       301700       0.351026
26.0204       301800       0.350556
26.029       301900       0.350087
26.0376       302000       0.349617
26.0463       302100       0.349149
26.0549       302200       0.34868
26.0635       302300       0.348212
26.0721       302400       0.347744
26.0808       302500       0.347276
26.0894       302600       0.346808
26.098       302700       0.346341
26.1066       302800       0.345874
26.1152       302900       0.345408
26.1239       303000       0.344941
26.1325       303100       0.344475
26.1411       303200       0.344009
26.1497       303300       0.343544
26.1584       303400       0.343079
26.167       303500       0.342613
26.1756       303600       0.342149
26.1842       303700       0.341684
26.1928       303800       0.34122
26.2015       303900       0.340756
26.2101       304000       0.340292
26.2187       304100       0.339829
26.2273       304200       0.339366
26.2359       304300       0.338903
26.2446       304400       0.338441
26.2532       304500       0.337978
26.2618       304600       0.337516
26.2704       304700       0.337054
26.2791       304800       0.336593
26.2877       304900       0.336132
26.2963       305000       0.335671
26.3049       305100       0.33521
26.3135       305200       0.33475
26.3222       305300       0.334289
26.3308       305400       0.33383
26.3394       305500       0.33337
26.348       305600       0.332911
26.3567       305700       0.332451
26.3653       305800       0.331993
26.3739       305900       0.331534
26.3825       306000       0.331076
26.3911       306100       0.330618
26.3998       306200       0.33016
26.4084       306300       0.329702
26.417       306400       0.329245
26.4256       306500       0.328788
26.4342       306600       0.328332
26.4429       306700       0.327875
26.4515       306800       0.327419
26.4601       306900       0.326963
26.4687       307000       0.326507
26.4774       307100       0.326052
26.486       307200       0.325597
26.4946       307300       0.325142
26.5032       307400       0.324687
26.5118       307500       0.324233
26.5205       307600       0.323779
26.5291       307700       0.323325
26.5377       307800       0.322872
26.5463       307900       0.322418
26.555       308000       0.321965
26.5636       308100       0.321513
26.5722       308200       0.32106
26.5808       308300       0.320608
26.5894       308400       0.320156
26.5981       308500       0.319704
26.6067       308600       0.319253
26.6153       308700       0.318802
26.6239       308800       0.318351
26.6325       308900       0.3179
26.6412       309000       0.31745
26.6498       309100       0.316999
26.6584       309200       0.31655
26.667       309300       0.3161
26.6757       309400       0.315651
26.6843       309500       0.315201
26.6929       309600       0.314753
26.7015       309700       0.314304
26.7101       309800       0.313856
26.7188       309900       0.313408
26.7274       310000       0.31296
26.736       310100       0.312512
26.7446       310200       0.312065
26.7533       310300       0.311618
26.7619       310400       0.311171
26.7705       310500       0.310724
26.7791       310600       0.310278
26.7877       310700       0.309832
26.7964       310800       0.309386
26.805       310900       0.308941
26.8136       311000       0.308496
26.8222       311100       0.308051
26.8308       311200       0.307606
26.8395       311300       0.307161
26.8481       311400       0.306717
26.8567       311500       0.306273
26.8653       311600       0.305829
26.874       311700       0.305386
26.8826       311800       0.304943
26.8912       311900       0.3045
26.8998       312000       0.304057
26.9084       312100       0.303614
26.9171       312200       0.303172
26.9257       312300       0.30273
26.9343       312400       0.302288
26.9429       312500       0.301847
26.9516       312600       0.301406
26.9602       312700       0.300965
26.9688       312800       0.300524
26.9774       312900       0.300084
26.986       313000       0.299643
26.9947       313100       0.299203
27.0033       313200       0.298764
27.0119       313300       0.298324
27.0205       313400       0.297885
27.0291       313500       0.297446
27.0378       313600       0.297007
27.0464       313700       0.296569
27.055       313800       0.296131
27.0636       313900       0.295693
27.0723       314000       0.295255
27.0809       314100       0.294818
27.0895       314200       0.29438
27.0981       314300       0.293943
27.1067       314400       0.293507
27.1154       314500       0.29307
27.124       314600       0.292634
27.1326       314700       0.292198
27.1412       314800       0.291762
27.1499       314900       0.291327
27.1585       315000       0.290891
27.1671       315100       0.290456
27.1757       315200       0.290022
27.1843       315300       0.289587
27.193       315400       0.289153
27.2016       315500       0.288719
27.2102       315600       0.288285
27.2188       315700       0.287852
27.2274       315800       0.287418
27.2361       315900       0.286985
27.2447       316000       0.286552
27.2533       316100       0.28612
27.2619       316200       0.285688
27.2706       316300       0.285256
27.2792       316400       0.284824
27.2878       316500       0.284392
27.2964       316600       0.283961
27.305       316700       0.28353
27.3137       316800       0.283099
27.3223       316900       0.282668
27.3309       317000       0.282238
27.3395       317100       0.281808
27.3482       317200       0.281378
27.3568       317300       0.280948
27.3654       317400       0.280519
27.374       317500       0.28009
27.3826       317600       0.279661
27.3913       317700       0.279232
27.3999       317800       0.278804
27.4085       317900       0.278376
27.4171       318000       0.277948
27.4257       318100       0.27752
27.4344       318200       0.277092
27.443       318300       0.276665
27.4516       318400       0.276238
27.4602       318500       0.275812
27.4689       318600       0.275385
27.4775       318700       0.274959
27.4861       318800       0.274533
27.4947       318900       0.274107
27.5033       319000       0.273681
27.512       319100       0.273256
27.5206       319200       0.272831
27.5292       319300       0.272406
27.5378       319400       0.271982
27.5465       319500       0.271557
27.5551       319600       0.271133
27.5637       319700       0.270709
27.5723       319800       0.270285
27.5809       319900       0.269862
27.5896       320000       0.269439
27.5982       320100       0.269016
27.6068       320200       0.268593
27.6154       320300       0.268171
27.624       320400       0.267749
27.6327       320500       0.267327
27.6413       320600       0.266905
27.6499       320700       0.266483
27.6585       320800       0.266062
27.6672       320900       0.265641
27.6758       321000       0.26522
27.6844       321100       0.264799
27.693       321200       0.264379
27.7016       321300       0.263959
27.7103       321400       0.263539
27.7189       321500       0.263119
27.7275       321600       0.2627
27.7361       321700       0.262281
27.7448       321800       0.261862
27.7534       321900       0.261443
27.762       322000       0.261025
27.7706       322100       0.260606
27.7792       322200       0.260188
27.7879       322300       0.259771
27.7965       322400       0.259353
27.8051       322500       0.258936
27.8137       322600       0.258518
27.8223       322700       0.258102
27.831       322800       0.257685
27.8396       322900       0.257269
27.8482       323000       0.256852
27.8568       323100       0.256436
27.8655       323200       0.256021
27.8741       323300       0.255605
27.8827       323400       0.25519
27.8913       323500       0.254775
27.8999       323600       0.25436
27.9086       323700       0.253946
27.9172       323800       0.253531
27.9258       323900       0.253117
27.9344       324000       0.252703
27.9431       324100       0.25229
27.9517       324200       0.251876
27.9603       324300       0.251463
27.9689       324400       0.25105
27.9775       324500       0.250637
27.9862       324600       0.250225
27.9948       324700       0.249812
28.0034       324800       0.2494
28.012       324900       0.248989
28.0206       325000       0.248577
28.0293       325100       0.248166
28.0379       325200       0.247754
28.0465       325300       0.247343
28.0551       325400       0.246933
28.0638       325500       0.246522
28.0724       325600       0.246112
28.081       325700       0.245702
28.0896       325800       0.245292
28.0982       325900       0.244883
28.1069       326000       0.244473
28.1155       326100       0.244064
28.1241       326200       0.243655
28.1327       326300       0.243247
28.1414       326400       0.242838
28.15       326500       0.24243
28.1586       326600       0.242022
28.1672       326700       0.241614
28.1758       326800       0.241207
28.1845       326900       0.240799
28.1931       327000       0.240392
28.2017       327100       0.239985
28.2103       327200       0.239579
28.2189       327300       0.239172
28.2276       327400       0.238766
28.2362       327500       0.23836
28.2448       327600       0.237954
28.2534       327700       0.237549
28.2621       327800       0.237143
28.2707       327900       0.236738
28.2793       328000       0.236333
28.2879       328100       0.235928
28.2965       328200       0.235524
28.3052       328300       0.23512
28.3138       328400       0.234716
28.3224       328500       0.234312
28.331       328600       0.233908
28.3397       328700       0.233505
28.3483       328800       0.233102
28.3569       328900       0.232699
28.3655       329000       0.232296
28.3741       329100       0.231894
28.3828       329200       0.231492
28.3914       329300       0.23109
28.4       329400       0.230688
28.4086       329500       0.230286
28.4172       329600       0.229885
28.4259       329700       0.229484
28.4345       329800       0.229083
28.4431       329900       0.228682
28.4517       330000       0.228282
28.4604       330100       0.227881
28.469       330200       0.227481
28.4776       330300       0.227081
28.4862       330400       0.226682
28.4948       330500       0.226282
28.5035       330600       0.225883
28.5121       330700       0.225484
28.5207       330800       0.225085
28.5293       330900       0.224687
28.538       331000       0.224288
28.5466       331100       0.22389
28.5552       331200       0.223492
28.5638       331300       0.223095
28.5724       331400       0.222697
28.5811       331500       0.2223
28.5897       331600       0.221903
28.5983       331700       0.221506
28.6069       331800       0.22111
28.6155       331900       0.220713
28.6242       332000       0.220317
28.6328       332100       0.219921
28.6414       332200       0.219525
28.65       332300       0.21913
28.6587       332400       0.218734
28.6673       332500       0.218339
28.6759       332600       0.217944
28.6845       332700       0.21755
28.6931       332800       0.217155
28.7018       332900       0.216761
28.7104       333000       0.216367
28.719       333100       0.215973
28.7276       333200       0.215579
28.7363       333300       0.215186
28.7449       333400       0.214793
28.7535       333500       0.2144
28.7621       333600       0.214007
28.7707       333700       0.213614
28.7794       333800       0.213222
28.788       333900       0.21283
28.7966       334000       0.212438
28.8052       334100       0.212046
28.8138       334200       0.211655
28.8225       334300       0.211263
28.8311       334400       0.210872
28.8397       334500       0.210481
28.8483       334600       0.210091
28.857       334700       0.2097
28.8656       334800       0.20931
28.8742       334900       0.20892
28.8828       335000       0.20853
28.8914       335100       0.208141
28.9001       335200       0.207751
28.9087       335300       0.207362
28.9173       335400       0.206973
28.9259       335500       0.206584
28.9346       335600       0.206196
28.9432       335700       0.205807
28.9518       335800       0.205419
28.9604       335900       0.205031
28.969       336000       0.204643
28.9777       336100       0.204256
28.9863       336200       0.203868
28.9949       336300       0.203481
29.0035       336400       0.203094
29.0121       336500       0.202708
29.0208       336600       0.202321
29.0294       336700       0.201935
29.038       336800       0.201549
29.0466       336900       0.201163
29.0553       337000       0.200777
29.0639       337100       0.200392
29.0725       337200       0.200006
29.0811       337300       0.199621
29.0897       337400       0.199236
29.0984       337500       0.198852
29.107       337600       0.198467
29.1156       337700       0.198083
29.1242       337800       0.197699
29.1329       337900       0.197315
29.1415       338000       0.196932
29.1501       338100       0.196548
29.1587       338200       0.196165
29.1673       338300       0.195782
29.176       338400       0.195399
29.1846       338500       0.195016
29.1932       338600       0.194634
29.2018       338700       0.194252
29.2104       338800       0.19387
29.2191       338900       0.193488
29.2277       339000       0.193106
29.2363       339100       0.192725
29.2449       339200       0.192344
29.2536       339300       0.191963
29.2622       339400       0.191582
29.2708       339500       0.191201
29.2794       339600       0.190821
29.288       339700       0.190441
29.2967       339800       0.190061
29.3053       339900       0.189681
29.3139       340000       0.189301
29.3225       340100       0.188922
29.3312       340200       0.188543
29.3398       340300       0.188164
29.3484       340400       0.187785
29.357       340500       0.187407
29.3656       340600       0.187028
29.3743       340700       0.18665
29.3829       340800       0.186272
29.3915       340900       0.185894
29.4001       341000       0.185517
29.4087       341100       0.185139
29.4174       341200       0.184762
29.426       341300       0.184385
29.4346       341400       0.184008
29.4432       341500       0.183632
29.4519       341600       0.183255
29.4605       341700       0.182879
29.4691       341800       0.182503
29.4777       341900       0.182127
29.4863       342000       0.181752
29.495       342100       0.181376
29.5036       342200       0.181001
29.5122       342300       0.180626
29.5208       342400       0.180251
29.5295       342500       0.179877
29.5381       342600       0.179502
29.5467       342700       0.179128
29.5553       342800       0.178754
29.5639       342900       0.17838
29.5726       343000       0.178007
29.5812       343100       0.177633
29.5898       343200       0.17726
29.5984       343300       0.176887
29.607       343400       0.176514
29.6157       343500       0.176141
29.6243       343600       0.175769
29.6329       343700       0.175397
29.6415       343800       0.175025
29.6502       343900       0.174653
29.6588       344000       0.174281
29.6674       344100       0.17391
29.676       344200       0.173538
29.6846       344300       0.173167
29.6933       344400       0.172796
29.7019       344500       0.172426
29.7105       344600       0.172055
29.7191       344700       0.171685
29.7278       344800       0.171315
29.7364       344900       0.170945
29.745       345000       0.170575
29.7536       345100       0.170206
29.7622       345200       0.169836
29.7709       345300       0.169467
29.7795       345400       0.169098
29.7881       345500       0.168729
29.7967       345600       0.168361
29.8053       345700       0.167992
29.814       345800       0.167624
29.8226       345900       0.167256
29.8312       346000       0.166888
29.8398       346100       0.166521
29.8485       346200       0.166153
29.8571       346300       0.165786
29.8657       346400       0.165419
29.8743       346500       0.165052
29.8829       346600       0.164686
29.8916       346700       0.164319
29.9002       346800       0.163953
29.9088       346900       0.163587
29.9174       347000       0.163221
29.9261       347100       0.162855
29.9347       347200       0.16249
29.9433       347300       0.162124
29.9519       347400       0.161759
29.9605       347500       0.161394
29.9692       347600       0.161029
29.9778       347700       0.160665
29.9864       347800       0.160301
29.995       347900       0.159936
30.0036       348000       0.159572
30.0123       348100       0.159209
30.0209       348200       0.158845
30.0295       348300       0.158481
30.0381       348400       0.158118
30.0468       348500       0.157755
30.0554       348600       0.157392
30.064       348700       0.15703
30.0726       348800       0.156667
30.0812       348900       0.156305
30.0899       349000       0.155943
30.0985       349100       0.155581
30.1071       349200       0.155219
30.1157       349300       0.154857
30.1244       349400       0.154496
30.133       349500       0.154135
30.1416       349600       0.153774
30.1502       349700       0.153413
30.1588       349800       0.153052
30.1675       349900       0.152692
30.1761       350000       0.152332
30.1847       350100       0.151972
30.1933       350200       0.151612
30.2019       350300       0.151252
30.2106       350400       0.150893
30.2192       350500       0.150533
30.2278       350600       0.150174
30.2364       350700       0.149815
30.2451       350800       0.149456
30.2537       350900       0.149098
30.2623       351000       0.148739
30.2709       351100       0.148381
30.2795       351200       0.148023
30.2882       351300       0.147665
30.2968       351400       0.147308
30.3054       351500       0.14695
30.314       351600       0.146593
30.3227       351700       0.146236
30.3313       351800       0.145879
30.3399       351900       0.145522
30.3485       352000       0.145166
30.3571       352100       0.144809
30.3658       352200       0.144453
30.3744       352300       0.144097
30.383       352400       0.143741
30.3916       352500       0.143386
30.4002       352600       0.14303
30.4089       352700       0.142675
30.4175       352800       0.14232
30.4261       352900       0.141965
30.4347       353000       0.14161
30.4434       353100       0.141255
30.452       353200       0.140901
30.4606       353300       0.140547
30.4692       353400       0.140193
30.4778       353500       0.139839
30.4865       353600       0.139485
30.4951       353700       0.139132
30.5037       353800       0.138779
30.5123       353900       0.138426
30.521       354000       0.138073
30.5296       354100       0.13772
30.5382       354200       0.137367
30.5468       354300       0.137015
30.5554       354400       0.136663
30.5641       354500       0.136311
30.5727       354600       0.135959
30.5813       354700       0.135607
30.5899       354800       0.135256
30.5985       354900       0.134904
30.6072       355000       0.134553
30.6158       355100       0.134202
30.6244       355200       0.133852
30.633       355300       0.133501
30.6417       355400       0.133151
30.6503       355500       0.1328
30.6589       355600       0.13245
30.6675       355700       0.1321
30.6761       355800       0.131751
30.6848       355900       0.131401
30.6934       356000       0.131052
30.702       356100       0.130703
30.7106       356200       0.130354
30.7193       356300       0.130005
30.7279       356400       0.129656
30.7365       356500       0.129308
30.7451       356600       0.128959
30.7537       356700       0.128611
30.7624       356800       0.128263
30.771       356900       0.127916
30.7796       357000       0.127568
30.7882       357100       0.127221
30.7968       357200       0.126873
30.8055       357300       0.126526
30.8141       357400       0.12618
30.8227       357500       0.125833
30.8313       357600       0.125486
30.84       357700       0.12514
30.8486       357800       0.124794
30.8572       357900       0.124448
30.8658       358000       0.124102
30.8744       358100       0.123756
30.8831       358200       0.123411
30.8917       358300       0.123066
30.9003       358400       0.122721
30.9089       358500       0.122376
30.9176       358600       0.122031
30.9262       358700       0.121686
30.9348       358800       0.121342
30.9434       358900       0.120998
30.952       359000       0.120653
30.9607       359100       0.12031
30.9693       359200       0.119966
30.9779       359300       0.119622
30.9865       359400       0.119279
30.9951       359500       0.118936
31.0038       359600       0.118593
31.0124       359700       0.11825
31.021       359800       0.117907
31.0296       359900       0.117565
31.0383       360000       0.117222
31.0469       360100       0.11688
31.0555       360200       0.116538
31.0641       360300       0.116196
31.0727       360400       0.115855
31.0814       360500       0.115513
31.09       360600       0.115172
31.0986       360700       0.114831
31.1072       360800       0.11449
31.1159       360900       0.114149
31.1245       361000       0.113808
31.1331       361100       0.113468
31.1417       361200       0.113128
31.1503       361300       0.112787
31.159       361400       0.112447
31.1676       361500       0.112108
31.1762       361600       0.111768
31.1848       361700       0.111429
31.1934       361800       0.111089
31.2021       361900       0.11075
31.2107       362000       0.110411
31.2193       362100       0.110073
31.2279       362200       0.109734
31.2366       362300       0.109396
31.2452       362400       0.109057
31.2538       362500       0.108719
31.2624       362600       0.108381
31.271       362700       0.108044
31.2797       362800       0.107706
31.2883       362900       0.107369
31.2969       363000       0.107032
31.3055       363100       0.106694
31.3142       363200       0.106358
31.3228       363300       0.106021
31.3314       363400       0.105684
31.34       363500       0.105348
31.3486       363600       0.105012
31.3573       363700       0.104676
31.3659       363800       0.10434
31.3745       363900       0.104004
31.3831       364000       0.103669
31.3917       364100       0.103333
31.4004       364200       0.102998
31.409       364300       0.102663
31.4176       364400       0.102328
31.4262       364500       0.101993
31.4349       364600       0.101659
31.4435       364700       0.101324
31.4521       364800       0.10099
31.4607       364900       0.100656
31.4693       365000       0.100322
31.478       365100       0.0999885
31.4866       365200       0.099655
31.4952       365300       0.0993216
31.5038       365400       0.0989884
31.5125       365500       0.0986553
31.5211       365600       0.0983224
31.5297       365700       0.0979897
31.5383       365800       0.0976572
31.5469       365900       0.0973248
31.5556       366000       0.0969926
31.5642       366100       0.0966605
31.5728       366200       0.0963286
31.5814       366300       0.0959969
31.59       366400       0.0956653
31.5987       366500       0.0953339
31.6073       366600       0.0950027
31.6159       366700       0.0946716
31.6245       366800       0.0943407
31.6332       366900       0.09401
31.6418       367000       0.0936794
31.6504       367100       0.093349
31.659       367200       0.0930187
31.6676       367300       0.0926886
31.6763       367400       0.0923587
31.6849       367500       0.0920289
31.6935       367600       0.0916993
31.7021       367700       0.0913699
31.7108       367800       0.0910406
31.7194       367900       0.0907115
31.728       368000       0.0903826
31.7366       368100       0.0900538
31.7452       368200       0.0897252
31.7539       368300       0.0893967
31.7625       368400       0.0890684
31.7711       368500       0.0887403
31.7797       368600       0.0884123
31.7883       368700       0.0880845
31.797       368800       0.0877568
31.8056       368900       0.0874293
31.8142       369000       0.087102
31.8228       369100       0.0867748
31.8315       369200       0.0864478
31.8401       369300       0.086121
31.8487       369400       0.0857943
31.8573       369500       0.0854678
31.8659       369600       0.0851414
31.8746       369700       0.0848152
31.8832       369800       0.0844892
31.8918       369900       0.0841633
31.9004       370000       0.0838376
31.9091       370100       0.083512
31.9177       370200       0.0831866
31.9263       370300       0.0828614
31.9349       370400       0.0825363
31.9435       370500       0.0822114
31.9522       370600       0.0818866
31.9608       370700       0.081562
31.9694       370800       0.0812376
31.978       370900       0.0809133
31.9866       371000       0.0805891
31.9953       371100       0.0802652
32.0039       371200       0.0799414
32.0125       371300       0.0796177
32.0211       371400       0.0792942
32.0298       371500       0.0789709
32.0384       371600       0.0786477
32.047       371700       0.0783247
32.0556       371800       0.0780019
32.0642       371900       0.0776792
32.0729       372000       0.0773566
32.0815       372100       0.0770342
32.0901       372200       0.076712
32.0987       372300       0.07639
32.1074       372400       0.076068
32.116       372500       0.0757463
32.1246       372600       0.0754247
32.1332       372700       0.0751033
32.1418       372800       0.074782
32.1505       372900       0.0744609
32.1591       373000       0.0741399
32.1677       373100       0.0738191
32.1763       373200       0.0734984
32.1849       373300       0.0731779
32.1936       373400       0.0728576
32.2022       373500       0.0725374
32.2108       373600       0.0722174
32.2194       373700       0.0718975
32.2281       373800       0.0715778
32.2367       373900       0.0712582
32.2453       374000       0.0709388
32.2539       374100       0.0706196
32.2625       374200       0.0703005
32.2712       374300       0.0699816
32.2798       374400       0.0696628
32.2884       374500       0.0693441
32.297       374600       0.0690257
32.3057       374700       0.0687074
32.3143       374800       0.0683892
32.3229       374900       0.0680712
32.3315       375000       0.0677533
32.3401       375100       0.0674356
32.3488       375200       0.0671181
32.3574       375300       0.0668007
32.366       375400       0.0664835
32.3746       375500       0.0661664
32.3832       375600       0.0658494
32.3919       375700       0.0655327
32.4005       375800       0.0652161
32.4091       375900       0.0648996
32.4177       376000       0.0645833
32.4264       376100       0.0642671
32.435       376200       0.0639511
32.4436       376300       0.0636352
32.4522       376400       0.0633195
32.4608       376500       0.063004
32.4695       376600       0.0626886
32.4781       376700       0.0623734
32.4867       376800       0.0620583
32.4953       376900       0.0617433
32.504       377000       0.0614285
32.5126       377100       0.0611139
32.5212       377200       0.0607994
32.5298       377300       0.0604851
32.5384       377400       0.0601709
32.5471       377500       0.0598569
32.5557       377600       0.059543
32.5643       377700       0.0592293
32.5729       377800       0.0589157
32.5815       377900       0.0586023
32.5902       378000       0.0582891
32.5988       378100       0.0579759
32.6074       378200       0.057663
32.616       378300       0.0573502
32.6247       378400       0.0570375
32.6333       378500       0.056725
32.6419       378600       0.0564126
32.6505       378700       0.0561004
32.6591       378800       0.0557884
32.6678       378900       0.0554764
32.6764       379000       0.0551647
32.685       379100       0.0548531
32.6936       379200       0.0545416
32.7023       379300       0.0542303
32.7109       379400       0.0539191
32.7195       379500       0.0536081
32.7281       379600       0.0532973
32.7367       379700       0.0529866
32.7454       379800       0.052676
32.754       379900       0.0523656
32.7626       380000       0.0520553
32.7712       380100       0.0517452
32.7798       380200       0.0514352
32.7885       380300       0.0511254
32.7971       380400       0.0508158
32.8057       380500       0.0505062
32.8143       380600       0.0501969
32.823       380700       0.0498876
32.8316       380800       0.0495786
32.8402       380900       0.0492696
32.8488       381000       0.0489609
32.8574       381100       0.0486522
32.8661       381200       0.0483438
32.8747       381300       0.0480354
32.8833       381400       0.0477272
32.8919       381500       0.0474192
32.9006       381600       0.0471113
32.9092       381700       0.0468036
32.9178       381800       0.046496
32.9264       381900       0.0461885
32.935       382000       0.0458812
32.9437       382100       0.0455741
32.9523       382200       0.045267
32.9609       382300       0.0449602
32.9695       382400       0.0446535
32.9781       382500       0.0443469
32.9868       382600       0.0440405
32.9954       382700       0.0437342
33.004       382800       0.0434281
33.0126       382900       0.0431221
33.0213       383000       0.0428163
33.0299       383100       0.0425106
33.0385       383200       0.042205
33.0471       383300       0.0418996
33.0557       383400       0.0415944
33.0644       383500       0.0412893
33.073       383600       0.0409843
33.0816       383700       0.0406795
33.0902       383800       0.0403748
33.0989       383900       0.0400703
33.1075       384000       0.0397659
33.1161       384100       0.0394617
33.1247       384200       0.0391576
33.1333       384300       0.0388536
33.142       384400       0.0385498
33.1506       384500       0.0382461
33.1592       384600       0.0379426
33.1678       384700       0.0376393
33.1764       384800       0.037336
33.1851       384900       0.037033
33.1937       385000       0.03673
33.2023       385100       0.0364272
33.2109       385200       0.0361246
33.2196       385300       0.0358221
33.2282       385400       0.0355197
33.2368       385500       0.0352175
33.2454       385600       0.0349154
33.254       385700       0.0346135
33.2627       385800       0.0343117
33.2713       385900       0.03401
33.2799       386000       0.0337085
33.2885       386100       0.0334072
33.2972       386200       0.033106
33.3058       386300       0.0328049
33.3144       386400       0.032504
33.323       386500       0.0322032
33.3316       386600       0.0319025
33.3403       386700       0.031602
33.3489       386800       0.0313016
33.3575       386900       0.0310014
33.3661       387000       0.0307013
33.3747       387100       0.0304014
33.3834       387200       0.0301016
33.392       387300       0.029802
33.4006       387400       0.0295025
33.4092       387500       0.0292031
33.4179       387600       0.0289039
33.4265       387700       0.0286048
33.4351       387800       0.0283058
33.4437       387900       0.028007
33.4523       388000       0.0277083
33.461       388100       0.0274098
33.4696       388200       0.0271114
33.4782       388300       0.0268132
33.4868       388400       0.0265151
33.4955       388500       0.0262171
33.5041       388600       0.0259193
33.5127       388700       0.0256216
33.5213       388800       0.0253241
33.5299       388900       0.0250267
33.5386       389000       0.0247294
33.5472       389100       0.0244323
33.5558       389200       0.0241353
33.5644       389300       0.0238385
33.573       389400       0.0235418
33.5817       389500       0.0232452
33.5903       389600       0.0229488
33.5989       389700       0.0226525
33.6075       389800       0.0223564
33.6162       389900       0.0220604
33.6248       390000       0.0217645
33.6334       390100       0.0214688
33.642       390200       0.0211732
33.6506       390300       0.0208778
33.6593       390400       0.0205825
33.6679       390500       0.0202873
33.6765       390600       0.0199923
33.6851       390700       0.0196974
33.6938       390800       0.0194026
33.7024       390900       0.019108
33.711       391000       0.0188135
33.7196       391100       0.0185192
33.7282       391200       0.018225
33.7369       391300       0.0179309
33.7455       391400       0.017637
33.7541       391500       0.0173432
33.7627       391600       0.0170495
33.7713       391700       0.016756
33.78       391800       0.0164626
33.7886       391900       0.0161694
33.7972       392000       0.0158763
33.8058       392100       0.0155833
33.8145       392200       0.0152905
33.8231       392300       0.0149978
33.8317       392400       0.0147053
33.8403       392500       0.0144128
33.8489       392600       0.0141206
33.8576       392700       0.0138284
33.8662       392800       0.0135364
33.8748       392900       0.0132445
33.8834       393000       0.0129528
33.8921       393100       0.0126612
33.9007       393200       0.0123697
33.9093       393300       0.0120784
33.9179       393400       0.0117872
33.9265       393500       0.0114962
33.9352       393600       0.0112052
33.9438       393700       0.0109145
33.9524       393800       0.0106238
33.961       393900       0.0103333
33.9696       394000       0.0100429
33.9783       394100       0.00975267
33.9869       394200       0.00946256
33.9955       394300       0.00917259
34.0041       394400       0.00888275
34.0128       394500       0.00859305
34.0214       394600       0.00830348
34.03       394700       0.00801404
34.0386       394800       0.00772474
34.0472       394900       0.00743558
34.0559       395000       0.00714655
34.0645       395100       0.00685765
34.0731       395200       0.00656889
34.0817       395300       0.00628026
34.0904       395400       0.00599177
34.099       395500       0.00570341
34.1076       395600       0.00541518
34.1162       395700       0.00512709
34.1248       395800       0.00483913
34.1335       395900       0.0045513
34.1421       396000       0.00426361
34.1507       396100       0.00397605
34.1593       396200       0.00368863
34.1679       396300       0.00340133
34.1766       396400       0.00311417
34.1852       396500       0.00282715
34.1938       396600       0.00254025
34.2024       396700       0.00225349
34.2111       396800       0.00196687
34.2197       396900       0.00168037
34.2283       397000       0.00139401
34.2369       397100       0.00110778
34.2455       397200       0.000821681
34.2542       397300       0.000535716
34.2628       397400       0.000249883
34.2714       397500       -3.58179e-05
34.28       397600       -0.000321387
34.2887       397700       -0.000606824
34.2973       397800       -0.000892129
34.3059       397900       -0.0011773
34.3145       398000       -0.00146234
34.3231       398100       -0.00174725
34.3318       398200       -0.00203203
34.3404       398300       -0.00231668
34.349       398400       -0.0026012
34.3576       398500       -0.00288558
34.3662       398600       -0.00316983
34.3749       398700       -0.00345396
34.3835       398800       -0.00373795
34.3921       398900       -0.00402181
34.4007       399000       -0.00430554
34.4094       399100       -0.00458914
34.418       399200       -0.00487261
34.4266       399300       -0.00515595
34.4352       399400       -0.00543915
34.4438       399500       -0.00572223
34.4525       399600       -0.00600518
34.4611       399700       -0.006288
34.4697       399800       -0.00657068
34.4783       399900       -0.00685324
34.487       400000       -0.00713567
